"success","task","trial_type","trial_index","time_elapsed","internal_node_id","participant_age","participant_gender","rt","stimulus","response","pixels_per_unit","itrial","iblock","leftDots","rightDots","difference","selected_side","confidence_value","left_confidence","right_confidence","correct","threshold","block_num","advice_direction","block","trial","trialid","dotsLeft","dotsRight","dotsDiff","selectedSide_first","confidence_first","correct_1","rt_1","adviceCond","adviceChoice","adviceDir","selectedSide_second","confidence_second","adviceCorrect","correct_2","rt_2","attention_check_correct","target_button","top_prompt","bottom_prompt","top_response","bottom_response"
"true","fullscreen_enter","fullscreen","0","6207","0.0-0.0","24","female","","","","","","","","","","","","","","","","","","","","","","","","","","","","","","","","","","","","","","","","",""
"","welcome","html-button-response","1","7749","0.0-1.0","24","female","1528","welcome_msg","0","","","","","","","","","","","","","","","","","","","","","","","","","","","","","","","","","","","","","",""
"","PISdoc","html-button-response","2","10511","0.0-2.0","24","female","2750","PISdoc","0","","","","","","","","","","","","","","","","","","","","","","","","","","","","","","","","","","","","","",""
"","demographics","survey-html-form","3","20585","0.0-3.0","24","female","10068","","{""age"":""24"",""gender"":""female""}","","","","","","","","","","","","","","","","","","","","","","","","","","","","","","","","","","","","","",""
"","dass10","survey-likert","4","110004","0.0-4.0","24","female","89406","","{""felt_panic"":1,""no_initiative"":2,""felt_blue"":0,""was_intolerant"":0,""nothing_forward"":1,""felt_scared"":1,""over_react"":1,""felt_worry"":1,""no_relax"":1,""no_positive"":1,""felt_annoyed"":0,""EOL_thoughts"":0}","","","","","","","","","","","","","","","","","","","","","","","","","","","","","","","","","","","","","",""
"","pracInstructions","html-button-response","5","119166","0.0-5.0-0.0","24","female","9154","pracInstruc","0","","","","","","","","","","","","","","","","","","","","","","","","","","","","","","","","","","","","","",""
"","pracInstructions","html-button-response","6","128925","0.0-5.0-0.1","24","female","9751","pracInstruc","0","","","","","","","","","","","","","","","","","","","","","","","","","","","","","","","","","","","","","",""
"","pracInstructions","html-button-response","7","133634","0.0-5.0-0.2","24","female","4703","pracInstruc","0","","","","","","","","","","","","","","","","","","","","","","","","","","","","","","","","","","","","","",""
"","pracInstructions","html-button-response","8","144401","0.0-5.0-0.3","24","female","10766","pracInstruc","0","","","","","","","","","","","","","","","","","","","","","","","","","","","","","","","","","","","","","",""
"","pracInstructions","html-button-response","9","147601","0.0-5.0-0.4","24","female","3197","pracInstruc","0","","","","","","","","","","","","","","","","","","","","","","","","","","","","","","","","","","","","","",""
"","pracInstructions","html-button-response","10","148534","0.0-5.0-0.5","24","female","930","pracInstruc","0","","","","","","","","","","","","","","","","","","","","","","","","","","","","","","","","","","","","","",""
"","pracInstructions","html-button-response","11","151434","0.0-5.0-0.6","24","female","2897","pracInstruc","0","","","","","","","","","","","","","","","","","","","","","","","","","","","","","","","","","","","","","",""
"","","html-button-response","12","158452","0.0-6.0","24","female","7014","<div style= ""font-size: 24px; color: white"">
                        
                            <p>First, Please hold a credit card up to your screen.</p>
                            <p>Adjust this box until it matches the size of the credit card.</p>
                            <div id=""calibration-box"" style=""
                                width: 506px;
                                height: 319px;
                                border: 2px solid white;
                                background-color: rgba(255,255,255,0.2);
                                margin: 20px auto;
                                resize: both;
                                overflow: hidden;
                            ""></div>
                        </div>
                    ","0","151","","","","","","","","","","","","","","","","","","","","","","","","","","","","","","","","","","","","",""
"","fixation","html-keyboard-response","13","158947","0.0-7.0-0.0","24","female","null","fixation","null","","-1","-1","","","","","","","","","","","","","","","","","","","","","","","","","","","","","","","","","","",""
"","numerosity","html-keyboard-response","14","159463","0.0-7.0-1.0","24","female","null","[Dot display: left=300, right=250, diff=50]","null","","-1","-1","300","250","50","","","","","","","","","","","","","","","","","","","","","","","","","","","","","","","",""
"","confidence_first","html-keyboard-response","15","164510","0.0-7.0-2.0","24","female","5039","Confidence judgement (first response)","","","-1","-1","","","","left","77","77","50","true","19","","","","","","","","","","","","","","","","","","","","","","","","","",""
"","fixation","html-keyboard-response","16","164825","0.0-8.0-0.0","24","female","null","fixation","null","","-1","-1","","","","","","","","","","","","","","","","","","","","","","","","","","","","","","","","","","",""
"","numerosity","html-keyboard-response","17","165347","0.0-8.0-1.0","24","female","null","[Dot display: left=250, right=300, diff=50]","null","","-1","-1","250","300","50","","","","","","","","","","","","","","","","","","","","","","","","","","","","","","","",""
"","confidence_first","html-keyboard-response","18","170484","0.0-8.0-2.0","24","female","5134.299999982119","Confidence judgement (first response)","","","-1","-1","","","","right","70","50","70","true","19","","","","","","","","","","","","","","","","","","","","","","","","","",""
"","fixation","html-keyboard-response","19","170691","0.0-9.0-0.0","24","female","null","fixation","null","","-1","-1","","","","","","","","","","","","","","","","","","","","","","","","","","","","","","","","","","",""
"","numerosity","html-keyboard-response","20","171207","0.0-9.0-1.0","24","female","null","[Dot display: left=300, right=250, diff=50]","null","","-1","-1","300","250","50","","","","","","","","","","","","","","","","","","","","","","","","","","","","","","","",""
"","confidence_first","html-keyboard-response","21","173669","0.0-9.0-2.0","24","female","2458.4000000059605","Confidence judgement (first response)","","","-1","-1","","","","left","75.25","75.25","50","true","19","","","","","","","","","","","","","","","","","","","","","","","","","",""
"","fixation","html-keyboard-response","22","174056","0.0-10.0-0.0","24","female","null","fixation","null","","-1","-1","","","","","","","","","","","","","","","","","","","","","","","","","","","","","","","","","","",""
"","numerosity","html-keyboard-response","23","174573","0.0-10.0-1.0","24","female","null","[Dot display: left=281, right=300, diff=19]","null","","-1","-1","281","300","19","","","","","","","","","","","","","","","","","","","","","","","","","","","","","","","",""
"","confidence_first","html-keyboard-response","24","176653","0.0-10.0-2.0","24","female","2076.5","Confidence judgement (first response)","","","-1","-1","","","","left","76","76","50","false","30","","","","","","","","","","","","","","","","","","","","","","","","","",""
"","fixation","html-keyboard-response","25","177016","0.0-11.0-0.0","24","female","null","fixation","null","","-1","-1","","","","","","","","","","","","","","","","","","","","","","","","","","","","","","","","","","",""
"","numerosity","html-keyboard-response","26","177528","0.0-11.0-1.0","24","female","null","[Dot display: left=270, right=300, diff=30]","null","","-1","-1","270","300","30","","","","","","","","","","","","","","","","","","","","","","","","","","","","","","","",""
"","confidence_first","html-keyboard-response","27","181137","0.0-11.0-2.0","24","female","3605","Confidence judgement (first response)","","","-1","-1","","","","right","85.25","50","85.25","true","29","","","","","","","","","","","","","","","","","","","","","","","","","",""
"","fixation","html-keyboard-response","28","181551","0.0-12.0-0.0","24","female","null","fixation","null","","-1","-1","","","","","","","","","","","","","","","","","","","","","","","","","","","","","","","","","","",""
"","numerosity","html-keyboard-response","29","182063","0.0-12.0-1.0","24","female","null","[Dot display: left=300, right=271, diff=29]","null","","-1","-1","300","271","29","","","","","","","","","","","","","","","","","","","","","","","","","","","","","","","",""
"","confidence_first","html-keyboard-response","30","184453","0.0-12.0-2.0","24","female","2387.5","Confidence judgement (first response)","","","-1","-1","","","","left","78.25","78.25","50","true","27","","","","","","","","","","","","","","","","","","","","","","","","","",""
"","fixation","html-keyboard-response","31","184677","0.0-13.0-0.0","24","female","null","fixation","null","","-1","-1","","","","","","","","","","","","","","","","","","","","","","","","","","","","","","","","","","",""
"","numerosity","html-keyboard-response","32","185188","0.0-13.0-1.0","24","female","null","[Dot display: left=273, right=300, diff=27]","null","","-1","-1","273","300","27","","","","","","","","","","","","","","","","","","","","","","","","","","","","","","","",""
"","confidence_first","html-keyboard-response","33","188187","0.0-13.0-2.0","24","female","2994.699999988079","Confidence judgement (first response)","","","-1","-1","","","","left","84.25","84.25","50","false","33","","","","","","","","","","","","","","","","","","","","","","","","","",""
"","fixation","html-keyboard-response","34","188437","0.0-14.0-0.0","24","female","null","fixation","null","","-1","-1","","","","","","","","","","","","","","","","","","","","","","","","","","","","","","","","","","",""
"","numerosity","html-keyboard-response","35","188949","0.0-14.0-1.0","24","female","null","[Dot display: left=267, right=300, diff=33]","null","","-1","-1","267","300","33","","","","","","","","","","","","","","","","","","","","","","","","","","","","","","","",""
"","confidence_first","html-keyboard-response","36","191004","0.0-14.0-2.0","24","female","2052.2999999821186","Confidence judgement (first response)","","","-1","-1","","","","right","85","50","85","true","32","","","","","","","","","","","","","","","","","","","","","","","","","",""
"","fixation","html-keyboard-response","37","191232","0.0-15.0-0.0","24","female","null","fixation","null","","-1","-1","","","","","","","","","","","","","","","","","","","","","","","","","","","","","","","","","","",""
"","numerosity","html-keyboard-response","38","191748","0.0-15.0-1.0","24","female","null","[Dot display: left=300, right=268, diff=32]","null","","-1","-1","300","268","32","","","","","","","","","","","","","","","","","","","","","","","","","","","","","","","",""
"","confidence_first","html-keyboard-response","39","193369","0.0-15.0-2.0","24","female","1618.0999999940395","Confidence judgement (first response)","","","-1","-1","","","","right","89.5","50","89.5","false","37","","","","","","","","","","","","","","","","","","","","","","","","","",""
"","fixation","html-keyboard-response","40","193832","0.0-16.0-0.0","24","female","null","fixation","null","","-1","-1","","","","","","","","","","","","","","","","","","","","","","","","","","","","","","","","","","",""
"","numerosity","html-keyboard-response","41","194344","0.0-16.0-1.0","24","female","null","[Dot display: left=263, right=300, diff=37]","null","","-1","-1","263","300","37","","","","","","","","","","","","","","","","","","","","","","","","","","","","","","","",""
"","confidence_first","html-keyboard-response","42","196672","0.0-16.0-2.0","24","female","2324.2000000178814","Confidence judgement (first response)","","","-1","-1","","","","right","53.25","50","53.25","true","36","","","","","","","","","","","","","","","","","","","","","","","","","",""
"","fixation","html-keyboard-response","43","197047","0.0-17.0-0.0","24","female","null","fixation","null","","-1","-1","","","","","","","","","","","","","","","","","","","","","","","","","","","","","","","","","","",""
"","numerosity","html-keyboard-response","44","197563","0.0-17.0-1.0","24","female","null","[Dot display: left=300, right=264, diff=36]","null","","-1","-1","300","264","36","","","","","","","","","","","","","","","","","","","","","","","","","","","","","","","",""
"","confidence_first","html-keyboard-response","45","199585","0.0-17.0-2.0","24","female","2019.199999988079","Confidence judgement (first response)","","","-1","-1","","","","left","66.25","66.25","50","true","35","","","","","","","","","","","","","","","","","","","","","","","","","",""
"","fixation","html-keyboard-response","46","199871","0.0-18.0-0.0","24","female","null","fixation","null","","-1","-1","","","","","","","","","","","","","","","","","","","","","","","","","","","","","","","","","","",""
"","numerosity","html-keyboard-response","47","200383","0.0-18.0-1.0","24","female","null","[Dot display: left=300, right=265, diff=35]","null","","-1","-1","300","265","35","","","","","","","","","","","","","","","","","","","","","","","","","","","","","","","",""
"","confidence_first","html-keyboard-response","48","202253","0.0-18.0-2.0","24","female","1866.5","Confidence judgement (first response)","","","-1","-1","","","","left","65","65","50","true","34","","","","","","","","","","","","","","","","","","","","","","","","","",""
"","fixation","html-keyboard-response","49","202692","0.0-19.0-0.0","24","female","null","fixation","null","","-1","-1","","","","","","","","","","","","","","","","","","","","","","","","","","","","","","","","","","",""
"","numerosity","html-keyboard-response","50","203203","0.0-19.0-1.0","24","female","null","[Dot display: left=266, right=300, diff=34]","null","","-1","-1","266","300","34","","","","","","","","","","","","","","","","","","","","","","","","","","","","","","","",""
"","confidence_first","html-keyboard-response","51","205420","0.0-19.0-2.0","24","female","2213.5","Confidence judgement (first response)","","","-1","-1","","","","right","74.5","50","74.5","true","33","","","","","","","","","","","","","","","","","","","","","","","","","",""
"","fixation","html-keyboard-response","52","205777","0.0-20.0-0.0","24","female","null","fixation","null","","-1","-1","","","","","","","","","","","","","","","","","","","","","","","","","","","","","","","","","","",""
"","numerosity","html-keyboard-response","53","206293","0.0-20.0-1.0","24","female","null","[Dot display: left=267, right=300, diff=33]","null","","-1","-1","267","300","33","","","","","","","","","","","","","","","","","","","","","","","","","","","","","","","",""
"","confidence_first","html-keyboard-response","54","207688","0.0-20.0-2.0","24","female","1391.5","Confidence judgement (first response)","","","-1","-1","","","","left","72.75","72.75","50","false","37","","","","","","","","","","","","","","","","","","","","","","","","","",""
"","fixation","html-keyboard-response","55","208048","0.0-21.0-0.0","24","female","null","fixation","null","","-1","-1","","","","","","","","","","","","","","","","","","","","","","","","","","","","","","","","","","",""
"","numerosity","html-keyboard-response","56","208564","0.0-21.0-1.0","24","female","null","[Dot display: left=263, right=300, diff=37]","null","","-1","-1","263","300","37","","","","","","","","","","","","","","","","","","","","","","","","","","","","","","","",""
"","confidence_first","html-keyboard-response","57","210587","0.0-21.0-2.0","24","female","2020","Confidence judgement (first response)","","","-1","-1","","","","right","78","50","78","true","36","","","","","","","","","","","","","","","","","","","","","","","","","",""
"","fixation","html-keyboard-response","58","210892","0.0-22.0-0.0","24","female","null","fixation","null","","-1","-1","","","","","","","","","","","","","","","","","","","","","","","","","","","","","","","","","","",""
"","numerosity","html-keyboard-response","59","211403","0.0-22.0-1.0","24","female","null","[Dot display: left=300, right=264, diff=36]","null","","-1","-1","300","264","36","","","","","","","","","","","","","","","","","","","","","","","","","","","","","","","",""
"","confidence_first","html-keyboard-response","60","213436","0.0-22.0-2.0","24","female","2031.5","Confidence judgement (first response)","","","-1","-1","","","","left","76.75","76.75","50","true","35","","","","","","","","","","","","","","","","","","","","","","","","","",""
"","fixation","html-keyboard-response","61","213817","0.0-23.0-0.0","24","female","null","fixation","null","","-1","-1","","","","","","","","","","","","","","","","","","","","","","","","","","","","","","","","","","",""
"","numerosity","html-keyboard-response","62","214329","0.0-23.0-1.0","24","female","null","[Dot display: left=265, right=300, diff=35]","null","","-1","-1","265","300","35","","","","","","","","","","","","","","","","","","","","","","","","","","","","","","","",""
"","confidence_first","html-keyboard-response","63","216037","0.0-23.0-2.0","24","female","1705.199999988079","Confidence judgement (first response)","","","-1","-1","","","","left","65","65","50","false","38","","","","","","","","","","","","","","","","","","","","","","","","","",""
"","fixation","html-keyboard-response","64","216493","0.0-24.0-0.0","24","female","null","fixation","null","","-1","-1","","","","","","","","","","","","","","","","","","","","","","","","","","","","","","","","","","",""
"","numerosity","html-keyboard-response","65","217009","0.0-24.0-1.0","24","female","null","[Dot display: left=262, right=300, diff=38]","null","","-1","-1","262","300","38","","","","","","","","","","","","","","","","","","","","","","","","","","","","","","","",""
"","confidence_first","html-keyboard-response","66","218722","0.0-24.0-2.0","24","female","1710.300000011921","Confidence judgement (first response)","","","-1","-1","","","","right","80.25","50","80.25","true","37","","","","","","","","","","","","","","","","","","","","","","","","","",""
"","fixation","html-keyboard-response","67","219042","0.0-25.0-0.0","24","female","null","fixation","null","","-1","-1","","","","","","","","","","","","","","","","","","","","","","","","","","","","","","","","","","",""
"","numerosity","html-keyboard-response","68","219554","0.0-25.0-1.0","24","female","null","[Dot display: left=263, right=300, diff=37]","null","","-1","-1","263","300","37","","","","","","","","","","","","","","","","","","","","","","","","","","","","","","","",""
"","confidence_first","html-keyboard-response","69","221455","0.0-25.0-2.0","24","female","1898.300000011921","Confidence judgement (first response)","","","-1","-1","","","","left","71.5","71.5","50","false","40","","","","","","","","","","","","","","","","","","","","","","","","","",""
"","fixation","html-keyboard-response","70","221728","0.0-26.0-0.0","24","female","null","fixation","null","","-1","-1","","","","","","","","","","","","","","","","","","","","","","","","","","","","","","","","","","",""
"","numerosity","html-keyboard-response","71","222243","0.0-26.0-1.0","24","female","null","[Dot display: left=260, right=300, diff=40]","null","","-1","-1","260","300","40","","","","","","","","","","","","","","","","","","","","","","","","","","","","","","","",""
"","confidence_first","html-keyboard-response","72","224705","0.0-26.0-2.0","24","female","2459","Confidence judgement (first response)","","","-1","-1","","","","right","67.75","50","67.75","true","40","","","","","","","","","","","","","","","","","","","","","","","","","",""
"","fixation","html-keyboard-response","73","225133","0.0-27.0-0.0","24","female","null","fixation","null","","-1","-1","","","","","","","","","","","","","","","","","","","","","","","","","","","","","","","","","","",""
"","numerosity","html-keyboard-response","74","225643","0.0-27.0-1.0","24","female","null","[Dot display: left=300, right=260, diff=40]","null","","-1","-1","300","260","40","","","","","","","","","","","","","","","","","","","","","","","","","","","","","","","",""
"","confidence_first","html-keyboard-response","75","227522","0.0-27.0-2.0","24","female","1876","Confidence judgement (first response)","","","-1","-1","","","","left","88.25","88.25","50","true","39","","","","","","","","","","","","","","","","","","","","","","","","","",""
"","fixation","html-keyboard-response","76","227928","0.0-28.0-0.0","24","female","null","fixation","null","","-1","-1","","","","","","","","","","","","","","","","","","","","","","","","","","","","","","","","","","",""
"","numerosity","html-keyboard-response","77","228439","0.0-28.0-1.0","24","female","null","[Dot display: left=261, right=300, diff=39]","null","","-1","-1","261","300","39","","","","","","","","","","","","","","","","","","","","","","","","","","","","","","","",""
"","confidence_first","html-keyboard-response","78","230288","0.0-28.0-2.0","24","female","1846.5","Confidence judgement (first response)","","","-1","-1","","","","right","76.75","50","76.75","true","38","","","","","","","","","","","","","","","","","","","","","","","","","",""
"","fixation","html-keyboard-response","79","230573","0.0-29.0-0.0","24","female","null","fixation","null","","-1","-1","","","","","","","","","","","","","","","","","","","","","","","","","","","","","","","","","","",""
"","numerosity","html-keyboard-response","80","231083","0.0-29.0-1.0","24","female","null","[Dot display: left=262, right=300, diff=38]","null","","-1","-1","262","300","38","","","","","","","","","","","","","","","","","","","","","","","","","","","","","","","",""
"","confidence_first","html-keyboard-response","81","233372","0.0-29.0-2.0","24","female","2286.4000000059605","Confidence judgement (first response)","","","-1","-1","","","","left","71.25","71.25","50","false","41","","","","","","","","","","","","","","","","","","","","","","","","","",""
"","fixation","html-keyboard-response","82","233673","0.0-30.0-0.0","24","female","null","fixation","null","","-1","-1","","","","","","","","","","","","","","","","","","","","","","","","","","","","","","","","","","",""
"","numerosity","html-keyboard-response","83","234185","0.0-30.0-1.0","24","female","null","[Dot display: left=300, right=259, diff=41]","null","","-1","-1","300","259","41","","","","","","","","","","","","","","","","","","","","","","","","","","","","","","","",""
"","confidence_first","html-keyboard-response","84","235972","0.0-30.0-2.0","24","female","1784.300000011921","Confidence judgement (first response)","","","-1","-1","","","","left","68.75","68.75","50","true","40","","","","","","","","","","","","","","","","","","","","","","","","","",""
"","fixation","html-keyboard-response","85","236273","0.0-31.0-0.0","24","female","null","fixation","null","","-1","-1","","","","","","","","","","","","","","","","","","","","","","","","","","","","","","","","","","",""
"","numerosity","html-keyboard-response","86","236784","0.0-31.0-1.0","24","female","null","[Dot display: left=260, right=300, diff=40]","null","","-1","-1","260","300","40","","","","","","","","","","","","","","","","","","","","","","","","","","","","","","","",""
"","confidence_first","html-keyboard-response","87","240168","0.0-31.0-2.0","24","female","3369.2000000178814","Confidence judgement (first response)","","","-1","-1","","","","left","70.25","70.25","50","false","43","","","","","","","","","","","","","","","","","","","","","","","","","",""
"","expInstructions","html-button-response","88","245221","0.0-32.0-0.0","24","female","5046","expInstruc","0","","","","","","","","","","","","","","","","","","","","","","","","","","","","","","","","","","","","","",""
"","expInstructions","html-button-response","89","251710","0.0-32.0-0.1","24","female","6483","expInstruc","0","","","","","","","","","","","","","","","","","","","","","","","","","","","","","","","","","","","","","",""
"","expInstructions","html-button-response","90","254889","0.0-32.0-0.2","24","female","3175","expInstruc","0","","","","","","","","","","","","","","","","","","","","","","","","","","","","","","","","","","","","","",""
"","expInstructions","html-button-response","91","256990","0.0-32.0-0.3","24","female","2099","expInstruc","0","","","","","","","","","","","","","","","","","","","","","","","","","","","","","","","","","","","","","",""
"","expInstructions","html-button-response","92","259655","0.0-32.0-0.4","24","female","2664","expInstruc","0","","","","","","","","","","","","","","","","","","","","","","","","","","","","","","","","","","","","","",""
"","expInstructions","html-button-response","93","262193","0.0-32.0-0.5","24","female","2536","expInstruc","0","","","","","","","","","","","","","","","","","","","","","","","","","","","","","","","","","","","","","",""
"","expInstructions","html-button-response","94","263424","0.0-32.0-0.6","24","female","1229","expInstruc","0","","","","","","","","","","","","","","","","","","","","","","","","","","","","","","","","","","","","","",""
"","expInstructions","html-button-response","95","265792","0.0-32.0-0.7","24","female","2365","expInstruc","0","","","","","","","","","","","","","","","","","","","","","","","","","","","","","","","","","","","","","",""
"","expInstructions","html-button-response","96","272557","0.0-32.0-0.8","24","female","6763","expInstruc","0","","","","","","","","","","","","","","","","","","","","","","","","","","","","","","","","","","","","","",""
"","expInstructions","html-button-response","97","275492","0.0-32.0-0.9","24","female","2932","expInstruc","0","","","","","","","","","","","","","","","","","","","","","","","","","","","","","","","","","","","","","",""
"","expInstructions","html-button-response","98","276793","0.0-32.0-0.10","24","female","1298","expInstruc","0","","","","","","","","","","","","","","","","","","","","","","","","","","","","","","","","","","","","","",""
"","expInstructions","html-button-response","99","282859","0.0-32.0-0.11","24","female","6064","expInstruc","0","","","","","","","","","","","","","","","","","","","","","","","","","","","","","","","","","","","","","",""
"","expInstructions","html-button-response","100","283959","0.0-32.0-0.12","24","female","1098","expInstruc","0","","","","","","","","","","","","","","","","","","","","","","","","","","","","","","","","","","","","","",""
"","block_message","html-button-response","101","286240","0.0-33.0","24","female","2279","block message","0","","","","","","","","","","","","","1","","","","","","","","","","","","","","","","","","","","","","","","",""
"","fixation","html-keyboard-response","102","286749","0.0-34.0-0.0","24","female","null","fixation","null","","-1","-1","","","","","","","","","","","","","","","","","","","","","","","","","","","","","","","","","","",""
"","numerosity","html-keyboard-response","103","287261","0.0-34.0-1.0","24","female","null","[Dot display: left=300, right=257, diff=43]","null","","-1","-1","300","257","43","","","","","","","","","","","","","","","","","","","","","","","","","","","","","","","",""
"","confidence_first","html-keyboard-response","104","291876","0.0-34.0-2.0","24","female","4611.799999982119","Confidence judgement (first response)","","","-1","-1","","","","left","77.5","77.5","50","true","42","","","","","","","","","","","","","","","","","","","","","","","","","",""
"","forced_advice_display","html-button-response","105","295241","0.0-34.0-4.0-0.0","24","female","3363","forcedAdvice","0","","-1","-1","","","","","","","","","","","","","","","","","","","","","","","","","","","","","","","","","","",""
"","show_advice","html-keyboard-response","106","296049","0.0-34.0-4.0-1.0","24","female","null","[advice: left]","null","","-1","-1","","","","","","","","","","","left","","","","","","","","","","","","","","","","","","","","","","","",""
"","confidence_second","html-keyboard-response","107","299877","0.0-34.0-6.0","24","female","3824","Confidence judgment (second response)","","","-1","-1","","","","left","98.75","98.75","50","true","41","","","","","","","","","","","","","","","","","","","","","","","","","",""
"","consolidated-trial-data","consolidated-trial-data","108","299879","0.0-35.0","24","female","null","consolidated-trial-data","null","","","","","","","","","","","","","","","0","0","0","300","257","43","left","77.5","true","4611.799999982119","2","nan","left","left","98.75","true","true","3824","","","","","",""
"","fixation","html-keyboard-response","109","300330","0.0-36.0-0.0","24","female","null","fixation","null","","-1","-1","","","","","","","","","","","","","","","","","","","","","","","","","","","","","","","","","","",""
"","numerosity","html-keyboard-response","110","300841","0.0-36.0-1.0","24","female","null","[Dot display: left=300, right=259, diff=41]","null","","-1","-1","300","259","41","","","","","","","","","","","","","","","","","","","","","","","","","","","","","","","",""
"","confidence_first","html-keyboard-response","111","304076","0.0-36.0-2.0","24","female","3231.5","Confidence judgement (first response)","","","-1","-1","","","","left","75.75","75.75","50","true","41","","","","","","","","","","","","","","","","","","","","","","","","","",""
"","forced_advice_display","html-button-response","112","305726","0.0-36.0-4.0-0.0","24","female","1648","forcedAdvice","0","","-1","-1","","","","","","","","","","","","","","","","","","","","","","","","","","","","","","","","","","",""
"","show_advice","html-keyboard-response","113","306534","0.0-36.0-4.0-1.0","24","female","null","[advice: left]","null","","-1","-1","","","","","","","","","","","left","","","","","","","","","","","","","","","","","","","","","","","",""
"","confidence_second","html-keyboard-response","114","308061","0.0-36.0-6.0","24","female","1522.9000000059605","Confidence judgment (second response)","","","-1","-1","","","","left","75.75","75.75","50","true","40","","","","","","","","","","","","","","","","","","","","","","","","","",""
"","consolidated-trial-data","consolidated-trial-data","115","308065","0.0-37.0","24","female","null","consolidated-trial-data","null","","","","","","","","","","","","","","","0","1","1","300","259","41","left","75.75","true","3231.5","2","nan","left","left","75.75","true","true","1522.9000000059605","","","","","",""
"","fixation","html-keyboard-response","116","308320","0.0-38.0-0.0","24","female","null","fixation","null","","-1","-1","","","","","","","","","","","","","","","","","","","","","","","","","","","","","","","","","","",""
"","numerosity","html-keyboard-response","117","308836","0.0-38.0-1.0","24","female","null","[Dot display: left=300, right=260, diff=40]","null","","-1","-1","300","260","40","","","","","","","","","","","","","","","","","","","","","","","","","","","","","","","",""
"","confidence_first","html-keyboard-response","118","311728","0.0-38.0-2.0","24","female","2888.5","Confidence judgement (first response)","","","-1","-1","","","","left","87.75","87.75","50","true","40","","","","","","","","","","","","","","","","","","","","","","","","","",""
"","advice_choice","html-button-response","119","313012","0.0-38.0-3.0-0.0","24","female","1281","[advice choice Y,N]","0","","-1","-1","","","","","","","","","","","","","","","","","","","","","","","","","","","","","","","","","","",""
"","show_advice","html-keyboard-response","120","313819","0.0-38.0-3.0-1.0-0.0","24","female","null","[advice: left]","null","","-1","-1","","","","","","","","","","","left","","","","","","","","","","","","","","","","","","","","","","","",""
"","confidence_second","html-keyboard-response","121","316244","0.0-38.0-6.0","24","female","2421.5","Confidence judgment (second response)","","","-1","-1","","","","left","99.25","99.25","50","true","40","","","","","","","","","","","","","","","","","","","","","","","","","",""
"","consolidated-trial-data","consolidated-trial-data","122","316248","0.0-39.0","24","female","null","consolidated-trial-data","null","","","","","","","","","","","","","","","0","2","2","300","260","40","left","87.75","true","2888.5","1","yes","left","left","99.25","true","true","2421.5","","","","","",""
"","fixation","html-keyboard-response","123","316589","0.0-40.0-0.0","24","female","null","fixation","null","","-1","-1","","","","","","","","","","","","","","","","","","","","","","","","","","","","","","","","","","",""
"","numerosity","html-keyboard-response","124","317101","0.0-40.0-1.0","24","female","null","[Dot display: left=300, right=260, diff=40]","null","","-1","-1","300","260","40","","","","","","","","","","","","","","","","","","","","","","","","","","","","","","","",""
"","confidence_first","html-keyboard-response","125","319608","0.0-40.0-2.0","24","female","2505.0999999940395","Confidence judgement (first response)","","","-1","-1","","","","left","74.5","74.5","50","true","39","","","","","","","","","","","","","","","","","","","","","","","","","",""
"","forced_advice_display","html-button-response","126","320926","0.0-40.0-4.0-0.0","24","female","1317","forcedAdvice","0","","-1","-1","","","","","","","","","","","","","","","","","","","","","","","","","","","","","","","","","","",""
"","show_advice","html-keyboard-response","127","321735","0.0-40.0-4.0-1.0","24","female","null","[advice: left]","null","","-1","-1","","","","","","","","","","","left","","","","","","","","","","","","","","","","","","","","","","","",""
"","confidence_second","html-keyboard-response","128","324461","0.0-40.0-6.0","24","female","2723.2000000178814","Confidence judgment (second response)","","","-1","-1","","","","left","98.75","98.75","50","true","39","","","","","","","","","","","","","","","","","","","","","","","","","",""
"","consolidated-trial-data","consolidated-trial-data","129","324465","0.0-41.0","24","female","null","consolidated-trial-data","null","","","","","","","","","","","","","","","0","3","3","300","260","40","left","74.5","true","2505.0999999940395","2","yes","left","left","98.75","true","true","2723.2000000178814","","","","","",""
"","block_message","html-button-response","130","328078","0.0-42.0","24","female","3611","block message","0","","","","","","","","","","","","","1","","","","","","","","","","","","","","","","","","","","","","","","",""
"","fixation","html-keyboard-response","131","328410","0.0-43.0-0.0","24","female","null","fixation","null","","-1","-1","","","","","","","","","","","","","","","","","","","","","","","","","","","","","","","","","","",""
"","numerosity","html-keyboard-response","132","328922","0.0-43.0-1.0","24","female","null","[Dot display: left=300, right=261, diff=39]","null","","-1","-1","300","261","39","","","","","","","","","","","","","","","","","","","","","","","","","","","","","","","",""
"","confidence_first","html-keyboard-response","133","331478","0.0-43.0-2.0","24","female","2553.199999988079","Confidence judgement (first response)","","","-1","-1","","","","left","77.75","77.75","50","true","38","","","","","","","","","","","","","","","","","","","","","","","","","",""
"","advice_choice","html-button-response","134","333179","0.0-43.0-3.0-0.0","24","female","1698","[advice choice Y,N]","0","","-1","-1","","","","","","","","","","","","","","","","","","","","","","","","","","","","","","","","","","",""
"","show_advice","html-keyboard-response","135","333985","0.0-43.0-3.0-1.0-0.0","24","female","null","[advice: left]","null","","-1","-1","","","","","","","","","","","left","","","","","","","","","","","","","","","","","","","","","","","",""
"","confidence_second","html-keyboard-response","136","335779","0.0-43.0-6.0","24","female","1790.5","Confidence judgment (second response)","","","-1","-1","","","","left","96.5","96.5","50","true","38","","","","","","","","","","","","","","","","","","","","","","","","","",""
"","consolidated-trial-data","consolidated-trial-data","137","335784","0.0-44.0","24","female","null","consolidated-trial-data","null","","","","","","","","","","","","","","","0","4","4","300","261","39","left","77.75","true","2553.199999988079","1","yes","left","left","96.5","true","true","1790.5","","","","","",""
"","fixation","html-keyboard-response","138","336131","0.0-45.0-0.0","24","female","null","fixation","null","","-1","-1","","","","","","","","","","","","","","","","","","","","","","","","","","","","","","","","","","",""
"","numerosity","html-keyboard-response","139","336642","0.0-45.0-1.0","24","female","null","[Dot display: left=300, right=262, diff=38]","null","","-1","-1","300","262","38","","","","","","","","","","","","","","","","","","","","","","","","","","","","","","","",""
"","confidence_first","html-keyboard-response","140","338629","0.0-45.0-2.0","24","female","1984.2000000178814","Confidence judgement (first response)","","","-1","-1","","","","left","74.25","74.25","50","true","38","","","","","","","","","","","","","","","","","","","","","","","","","",""
"","no_advice_display","html-button-response","141","339780","0.0-45.0-5.0-0.0","24","female","1148","noAdvice","0","","-1","-1","","","","","","","","","","","","","","","","","","","","","","","","","","","","","","","","","","",""
"","blank_screen","html-keyboard-response","142","340586","0.0-45.0-5.0-1.0","24","female","null","blank","null","","-1","-1","","","","","","","","","","","","","","","","","","","","","","","","","","","","","","","","","","",""
"","confidence_second","html-keyboard-response","143","341729","0.0-45.0-6.0","24","female","1139.9000000059605","Confidence judgment (second response)","","","-1","-1","","","","left","74.25","74.25","50","true","37","","","","","","","","","","","","","","","","","","","","","","","","","",""
"","consolidated-trial-data","consolidated-trial-data","144","341732","0.0-46.0","24","female","null","consolidated-trial-data","null","","","","","","","","","","","","","","","0","5","5","300","262","38","left","74.25","true","1984.2000000178814","3","yes","left","left","74.25","true","true","1139.9000000059605","","","","","",""
"","attncheck","html-button-response","145","345196","0.0-47.0","24","female","3462","attncheck","2","","","","","","","","","","","","","","","","","","","","","","","","","","","","","","","","","true","Next","","","",""
"","fixation","html-keyboard-response","146","345516","0.0-48.0-0.0","24","female","null","fixation","null","","-1","-1","","","","","","","","","","","","","","","","","","","","","","","","","","","","","","","","","","",""
"","numerosity","html-keyboard-response","147","346027","0.0-48.0-1.0","24","female","null","[Dot display: left=300, right=263, diff=37]","null","","-1","-1","300","263","37","","","","","","","","","","","","","","","","","","","","","","","","","","","","","","","",""
"","confidence_first","html-keyboard-response","148","350380","0.0-48.0-2.0","24","female","4349.5","Confidence judgement (first response)","","","-1","-1","","","","left","79.25","79.25","50","true","37","","","","","","","","","","","","","","","","","","","","","","","","","",""
"","no_advice_display","html-button-response","149","352462","0.0-48.0-5.0-0.0","24","female","2080","noAdvice","0","","-1","-1","","","","","","","","","","","","","","","","","","","","","","","","","","","","","","","","","","",""
"","blank_screen","html-keyboard-response","150","353271","0.0-48.0-5.0-1.0","24","female","null","blank","null","","-1","-1","","","","","","","","","","","","","","","","","","","","","","","","","","","","","","","","","","",""
"","confidence_second","html-keyboard-response","151","354296","0.0-48.0-6.0","24","female","1022","Confidence judgment (second response)","","","-1","-1","","","","left","79.25","79.25","50","true","37","","","","","","","","","","","","","","","","","","","","","","","","","",""
"","consolidated-trial-data","consolidated-trial-data","152","354299","0.0-49.0","24","female","null","consolidated-trial-data","null","","","","","","","","","","","","","","","0","6","6","300","263","37","left","79.25","true","4349.5","3","yes","left","left","79.25","true","true","1022","","","","","",""
"","fixation","html-keyboard-response","153","354696","0.0-50.0-0.0","24","female","null","fixation","null","","-1","-1","","","","","","","","","","","","","","","","","","","","","","","","","","","","","","","","","","",""
"","numerosity","html-keyboard-response","154","355208","0.0-50.0-1.0","24","female","null","[Dot display: left=300, right=263, diff=37]","null","","-1","-1","300","263","37","","","","","","","","","","","","","","","","","","","","","","","","","","","","","","","",""
"","confidence_first","html-keyboard-response","155","357247","0.0-50.0-2.0","24","female","2036","Confidence judgement (first response)","","","-1","-1","","","","left","76.5","76.5","50","true","36","","","","","","","","","","","","","","","","","","","","","","","","","",""
"","no_advice_display","html-button-response","156","358297","0.0-50.0-5.0-0.0","24","female","1048","noAdvice","0","","-1","-1","","","","","","","","","","","","","","","","","","","","","","","","","","","","","","","","","","",""
"","blank_screen","html-keyboard-response","157","359106","0.0-50.0-5.0-1.0","24","female","null","blank","null","","-1","-1","","","","","","","","","","","","","","","","","","","","","","","","","","","","","","","","","","",""
"","confidence_second","html-keyboard-response","158","360297","0.0-50.0-6.0","24","female","1187.300000011921","Confidence judgment (second response)","","","-1","-1","","","","left","76.5","76.5","50","true","36","","","","","","","","","","","","","","","","","","","","","","","","","",""
"","consolidated-trial-data","consolidated-trial-data","159","360301","0.0-51.0","24","female","null","consolidated-trial-data","null","","","","","","","","","","","","","","","0","7","7","300","263","37","left","76.5","true","2036","3","yes","left","left","76.5","true","true","1187.300000011921","","","","","",""
"","fixation","html-keyboard-response","160","360546","0.0-52.0-0.0","24","female","null","fixation","null","","-1","-1","","","","","","","","","","","","","","","","","","","","","","","","","","","","","","","","","","",""
"","numerosity","html-keyboard-response","161","361058","0.0-52.0-1.0","24","female","null","[Dot display: left=300, right=264, diff=36]","null","","-1","-1","300","264","36","","","","","","","","","","","","","","","","","","","","","","","","","","","","","","","",""
"","confidence_first","html-keyboard-response","162","363414","0.0-52.0-2.0","24","female","2352.899999976158","Confidence judgement (first response)","","","-1","-1","","","","right","72","50","72","false","37","","","","","","","","","","","","","","","","","","","","","","","","","",""
"","advice_choice","html-button-response","163","364931","0.0-52.0-3.0-0.0","24","female","1514","[advice choice Y,N]","0","","-1","-1","","","","","","","","","","","","","","","","","","","","","","","","","","","","","","","","","","",""
"","show_advice","html-keyboard-response","164","365741","0.0-52.0-3.0-1.0-0.0","24","female","null","[advice: left]","null","","-1","-1","","","","","","","","","","","left","","","","","","","","","","","","","","","","","","","","","","","",""
"","confidence_second","html-keyboard-response","165","367347","0.0-52.0-6.0","24","female","1602.4000000059605","Confidence judgment (second response)","","","-1","-1","","","","left","87.25","87.25","50","true","37","","","","","","","","","","","","","","","","","","","","","","","","","",""
"","consolidated-trial-data","consolidated-trial-data","166","367350","0.0-53.0","24","female","null","consolidated-trial-data","null","","","","","","","","","","","","","","","0","8","8","300","264","36","right","72","false","2352.899999976158","1","yes","left","left","87.25","true","true","1602.4000000059605","","","","","",""
"","block_message","html-button-response","167","369848","0.0-54.0","24","female","2495","block message","0","","","","","","","","","","","","","1","","","","","","","","","","","","","","","","","","","","","","","","",""
"","fixation","html-keyboard-response","168","370267","0.0-55.0-0.0","24","female","null","fixation","null","","-1","-1","","","","","","","","","","","","","","","","","","","","","","","","","","","","","","","","","","",""
"","numerosity","html-keyboard-response","169","370783","0.0-55.0-1.0","24","female","null","[Dot display: left=263, right=300, diff=37]","null","","-1","-1","263","300","37","","","","","","","","","","","","","","","","","","","","","","","","","","","","","","","",""
"","confidence_first","html-keyboard-response","170","373282","0.0-55.0-2.0","24","female","2494.899999976158","Confidence judgement (first response)","","","-1","-1","","","","left","80.5","80.5","50","false","38","","","","","","","","","","","","","","","","","","","","","","","","","",""
"","advice_choice","html-button-response","171","374516","0.0-55.0-3.0-0.0","24","female","1231","[advice choice Y,N]","0","","-1","-1","","","","","","","","","","","","","","","","","","","","","","","","","","","","","","","","","","",""
"","show_advice","html-keyboard-response","172","375327","0.0-55.0-3.0-1.0-0.0","24","female","null","[advice: right]","null","","-1","-1","","","","","","","","","","","right","","","","","","","","","","","","","","","","","","","","","","","",""
"","confidence_second","html-keyboard-response","173","378731","0.0-55.0-6.0","24","female","3399.199999988079","Confidence judgment (second response)","","","-1","-1","","","","right","64.25","50","64.25","true","38","","","","","","","","","","","","","","","","","","","","","","","","","",""
"","consolidated-trial-data","consolidated-trial-data","174","378734","0.0-56.0","24","female","null","consolidated-trial-data","null","","","","","","","","","","","","","","","0","9","9","263","300","37","left","80.5","false","2494.899999976158","1","yes","right","right","64.25","true","true","3399.199999988079","","","","","",""
"","fixation","html-keyboard-response","175","379231","0.0-57.0-0.0","24","female","null","fixation","null","","-1","-1","","","","","","","","","","","","","","","","","","","","","","","","","","","","","","","","","","",""
"","numerosity","html-keyboard-response","176","379742","0.0-57.0-1.0","24","female","null","[Dot display: left=300, right=262, diff=38]","null","","-1","-1","300","262","38","","","","","","","","","","","","","","","","","","","","","","","","","","","","","","","",""
"","confidence_first","html-keyboard-response","177","382439","0.0-57.0-2.0","24","female","2690.0999999940395","Confidence judgement (first response)","","","-1","-1","","","","left","77.75","77.75","50","true","38","","","","","","","","","","","","","","","","","","","","","","","","","",""
"","forced_advice_display","html-button-response","178","383998","0.0-57.0-4.0-0.0","24","female","1556","forcedAdvice","0","","-1","-1","","","","","","","","","","","","","","","","","","","","","","","","","","","","","","","","","","",""
"","show_advice","html-keyboard-response","179","384807","0.0-57.0-4.0-1.0","24","female","null","[advice: left]","null","","-1","-1","","","","","","","","","","","left","","","","","","","","","","","","","","","","","","","","","","","",""
"","confidence_second","html-keyboard-response","180","386032","0.0-57.0-6.0","24","female","1220.199999988079","Confidence judgment (second response)","","","-1","-1","","","","left","77.75","77.75","50","true","37","","","","","","","","","","","","","","","","","","","","","","","","","",""
"","consolidated-trial-data","consolidated-trial-data","181","386034","0.0-58.0","24","female","null","consolidated-trial-data","null","","","","","","","","","","","","","","","0","10","10","300","262","38","left","77.75","true","2690.0999999940395","2","yes","left","left","77.75","true","true","1220.199999988079","","","","","",""
"","fixation","html-keyboard-response","182","386512","0.0-59.0-0.0","24","female","null","fixation","null","","-1","-1","","","","","","","","","","","","","","","","","","","","","","","","","","","","","","","","","","",""
"","numerosity","html-keyboard-response","183","387028","0.0-59.0-1.0","24","female","null","[Dot display: left=263, right=300, diff=37]","null","","-1","-1","263","300","37","","","","","","","","","","","","","","","","","","","","","","","","","","","","","","","",""
"","confidence_first","html-keyboard-response","184","388915","0.0-59.0-2.0","24","female","1884.4000000059605","Confidence judgement (first response)","","","-1","-1","","","","right","73.75","50","73.75","true","37","","","","","","","","","","","","","","","","","","","","","","","","","",""
"","no_advice_display","html-button-response","185","390199","0.0-59.0-5.0-0.0","24","female","1281","noAdvice","0","","-1","-1","","","","","","","","","","","","","","","","","","","","","","","","","","","","","","","","","","",""
"","blank_screen","html-keyboard-response","186","391007","0.0-59.0-5.0-1.0","24","female","null","blank","null","","-1","-1","","","","","","","","","","","","","","","","","","","","","","","","","","","","","","","","","","",""
"","confidence_second","html-keyboard-response","187","391967","0.0-59.0-6.0","24","female","956","Confidence judgment (second response)","","","-1","-1","","","","right","73.75","50","73.75","true","37","","","","","","","","","","","","","","","","","","","","","","","","","",""
"","consolidated-trial-data","consolidated-trial-data","188","391970","0.0-60.0","24","female","null","consolidated-trial-data","null","","","","","","","","","","","","","","","0","11","11","263","300","37","right","73.75","true","1884.4000000059605","3","yes","left","right","73.75","false","true","956","","","","","",""
"","fixation","html-keyboard-response","189","392261","0.0-61.0-0.0","24","female","null","fixation","null","","-1","-1","","","","","","","","","","","","","","","","","","","","","","","","","","","","","","","","","","",""
"","numerosity","html-keyboard-response","190","392774","0.0-61.0-1.0","24","female","null","[Dot display: left=263, right=300, diff=37]","null","","-1","-1","263","300","37","","","","","","","","","","","","","","","","","","","","","","","","","","","","","","","",""
"","confidence_first","html-keyboard-response","191","394830","0.0-61.0-2.0","24","female","2053.7999999821186","Confidence judgement (first response)","","","-1","-1","","","","left","71.5","71.5","50","false","38","","","","","","","","","","","","","","","","","","","","","","","","","",""
"","forced_advice_display","html-button-response","192","396165","0.0-61.0-4.0-0.0","24","female","1334","forcedAdvice","0","","-1","-1","","","","","","","","","","","","","","","","","","","","","","","","","","","","","","","","","","",""
"","show_advice","html-keyboard-response","193","396972","0.0-61.0-4.0-1.0","24","female","null","[advice: right]","null","","-1","-1","","","","","","","","","","","right","","","","","","","","","","","","","","","","","","","","","","","",""
"","confidence_second","html-keyboard-response","194","398950","0.0-61.0-6.0","24","female","1975.5999999940395","Confidence judgment (second response)","","","-1","-1","","","","right","83.5","50","83.5","true","38","","","","","","","","","","","","","","","","","","","","","","","","","",""
"","consolidated-trial-data","consolidated-trial-data","195","398953","0.0-62.0","24","female","null","consolidated-trial-data","null","","","","","","","","","","","","","","","0","12","12","263","300","37","left","71.5","false","2053.7999999821186","2","yes","right","right","83.5","true","true","1975.5999999940395","","","","","",""
"","fixation","html-keyboard-response","196","399237","0.0-63.0-0.0","24","female","null","fixation","null","","-1","-1","","","","","","","","","","","","","","","","","","","","","","","","","","","","","","","","","","",""
"","numerosity","html-keyboard-response","197","399749","0.0-63.0-1.0","24","female","null","[Dot display: left=262, right=300, diff=38]","null","","-1","-1","262","300","38","","","","","","","","","","","","","","","","","","","","","","","","","","","","","","","",""
"","confidence_first","html-keyboard-response","198","401449","0.0-63.0-2.0","24","female","1696.7000000178814","Confidence judgement (first response)","","","-1","-1","","","","right","81.25","50","81.25","true","37","","","","","","","","","","","","","","","","","","","","","","","","","",""
"","no_advice_display","html-button-response","199","403566","0.0-63.0-5.0-0.0","24","female","2114","noAdvice","0","","-1","-1","","","","","","","","","","","","","","","","","","","","","","","","","","","","","","","","","","",""
"","blank_screen","html-keyboard-response","200","404372","0.0-63.0-5.0-1.0","24","female","null","blank","null","","-1","-1","","","","","","","","","","","","","","","","","","","","","","","","","","","","","","","","","","",""
"","confidence_second","html-keyboard-response","201","405649","0.0-63.0-6.0","24","female","1274.300000011921","Confidence judgment (second response)","","","-1","-1","","","","right","81.25","50","81.25","true","37","","","","","","","","","","","","","","","","","","","","","","","","","",""
"","consolidated-trial-data","consolidated-trial-data","202","405652","0.0-64.0","24","female","null","consolidated-trial-data","null","","","","","","","","","","","","","","","0","13","13","262","300","38","right","81.25","true","1696.7000000178814","3","yes","right","right","81.25","true","true","1274.300000011921","","","","","",""
"","fixation","html-keyboard-response","203","405938","0.0-65.0-0.0","24","female","null","fixation","null","","-1","-1","","","","","","","","","","","","","","","","","","","","","","","","","","","","","","","","","","",""
"","numerosity","html-keyboard-response","204","406449","0.0-65.0-1.0","24","female","null","[Dot display: left=263, right=300, diff=37]","null","","-1","-1","263","300","37","","","","","","","","","","","","","","","","","","","","","","","","","","","","","","","",""
"","confidence_first","html-keyboard-response","205","409384","0.0-65.0-2.0","24","female","2931.300000011921","Confidence judgement (first response)","","","-1","-1","","","","right","72.75","50","72.75","true","37","","","","","","","","","","","","","","","","","","","","","","","","","",""
"","advice_choice","html-button-response","206","410533","0.0-65.0-3.0-0.0","24","female","1147","[advice choice Y,N]","0","","-1","-1","","","","","","","","","","","","","","","","","","","","","","","","","","","","","","","","","","",""
"","show_advice","html-keyboard-response","207","411342","0.0-65.0-3.0-1.0-0.0","24","female","null","[advice: right]","null","","-1","-1","","","","","","","","","","","right","","","","","","","","","","","","","","","","","","","","","","","",""
"","confidence_second","html-keyboard-response","208","414184","0.0-65.0-6.0","24","female","2838.5","Confidence judgment (second response)","","","-1","-1","","","","right","84.5","50","84.5","true","37","","","","","","","","","","","","","","","","","","","","","","","","","",""
"","consolidated-trial-data","consolidated-trial-data","209","414188","0.0-66.0","24","female","null","consolidated-trial-data","null","","","","","","","","","","","","","","","0","14","14","263","300","37","right","72.75","true","2931.300000011921","1","yes","right","right","84.5","true","true","2838.5","","","","","",""
"","block_message","html-button-response","210","415751","0.0-67.0","24","female","1561","block message","0","","","","","","","","","","","","","2","","","","","","","","","","","","","","","","","","","","","","","","",""
"","fixation","html-keyboard-response","211","416257","0.0-68.0-0.0","24","female","null","fixation","null","","-1","-1","","","","","","","","","","","","","","","","","","","","","","","","","","","","","","","","","","",""
"","numerosity","html-keyboard-response","212","416768","0.0-68.0-1.0","24","female","null","[Dot display: left=263, right=300, diff=37]","null","","-1","-1","263","300","37","","","","","","","","","","","","","","","","","","","","","","","","","","","","","","","",""
"","confidence_first","html-keyboard-response","213","418451","0.0-68.0-2.0","24","female","1679.7000000178814","Confidence judgement (first response)","","","-1","-1","","","","right","78.5","50","78.5","true","37","","","","","","","","","","","","","","","","","","","","","","","","","",""
"","forced_advice_display","html-button-response","214","420001","0.0-68.0-4.0-0.0","24","female","1547","forcedAdvice","0","","-1","-1","","","","","","","","","","","","","","","","","","","","","","","","","","","","","","","","","","",""
"","show_advice","html-keyboard-response","215","420808","0.0-68.0-4.0-1.0","24","female","null","[advice: right]","null","","-1","-1","","","","","","","","","","","right","","","","","","","","","","","","","","","","","","","","","","","",""
"","confidence_second","html-keyboard-response","216","426334","0.0-68.0-6.0","24","female","5521.5","Confidence judgment (second response)","","","-1","-1","","","","right","99.5","50","99.5","true","36","","","","","","","","","","","","","","","","","","","","","","","","","",""
"","consolidated-trial-data","consolidated-trial-data","217","426336","0.0-69.0","24","female","null","consolidated-trial-data","null","","","","","","","","","","","","","","","1","0","15","263","300","37","right","78.5","true","1679.7000000178814","2","yes","right","right","99.5","true","true","5521.5","","","","","",""
"","fixation","html-keyboard-response","218","426708","0.0-70.0-0.0","24","female","null","fixation","null","","-1","-1","","","","","","","","","","","","","","","","","","","","","","","","","","","","","","","","","","",""
"","numerosity","html-keyboard-response","219","427219","0.0-70.0-1.0","24","female","null","[Dot display: left=300, right=264, diff=36]","null","","-1","-1","300","264","36","","","","","","","","","","","","","","","","","","","","","","","","","","","","","","","",""
"","confidence_first","html-keyboard-response","220","429734","0.0-70.0-2.0","24","female","2513","Confidence judgement (first response)","","","-1","-1","","","","left","76.5","76.5","50","true","36","","","","","","","","","","","","","","","","","","","","","","","","","",""
"","forced_advice_display","html-button-response","221","430653","0.0-70.0-4.0-0.0","24","female","916","forcedAdvice","0","","-1","-1","","","","","","","","","","","","","","","","","","","","","","","","","","","","","","","","","","",""
"","show_advice","html-keyboard-response","222","431463","0.0-70.0-4.0-1.0","24","female","null","[advice: left]","null","","-1","-1","","","","","","","","","","","left","","","","","","","","","","","","","","","","","","","","","","","",""
"","confidence_second","html-keyboard-response","223","434118","0.0-70.0-6.0","24","female","2651.9000000059605","Confidence judgment (second response)","","","-1","-1","","","","left","100","100","50","true","36","","","","","","","","","","","","","","","","","","","","","","","","","",""
"","consolidated-trial-data","consolidated-trial-data","224","434121","0.0-71.0","24","female","null","consolidated-trial-data","null","","","","","","","","","","","","","","","1","1","16","300","264","36","left","76.5","true","2513","2","yes","left","left","100","true","true","2651.9000000059605","","","","","",""
"","fixation","html-keyboard-response","225","434573","0.0-72.0-0.0","24","female","null","fixation","null","","-1","-1","","","","","","","","","","","","","","","","","","","","","","","","","","","","","","","","","","",""
"","numerosity","html-keyboard-response","226","435094","0.0-72.0-1.0","24","female","null","[Dot display: left=264, right=300, diff=36]","null","","-1","-1","264","300","36","","","","","","","","","","","","","","","","","","","","","","","","","","","","","","","",""
"","confidence_first","html-keyboard-response","227","437252","0.0-72.0-2.0","24","female","2152.5","Confidence judgement (first response)","","","-1","-1","","","","right","92.25","50","92.25","true","36","","","","","","","","","","","","","","","","","","","","","","","","","",""
"","advice_choice","html-button-response","228","438435","0.0-72.0-3.0-0.0","24","female","1180","[advice choice Y,N]","0","","-1","-1","","","","","","","","","","","","","","","","","","","","","","","","","","","","","","","","","","",""
"","show_advice","html-keyboard-response","229","439243","0.0-72.0-3.0-1.0-0.0","24","female","null","[advice: right]","null","","-1","-1","","","","","","","","","","","right","","","","","","","","","","","","","","","","","","","","","","","",""
"","confidence_second","html-keyboard-response","230","441183","0.0-72.0-6.0","24","female","1922.8999999761581","Confidence judgment (second response)","","","-1","-1","","","","right","99.75","50","99.75","true","36","","","","","","","","","","","","","","","","","","","","","","","","","",""
"","consolidated-trial-data","consolidated-trial-data","231","441187","0.0-73.0","24","female","null","consolidated-trial-data","null","","","","","","","","","","","","","","","1","2","17","264","300","36","right","92.25","true","2152.5","1","yes","right","right","99.75","true","true","1922.8999999761581","","","","","",""
"","fixation","html-keyboard-response","232","441518","0.0-74.0-0.0","24","female","null","fixation","null","","-1","-1","","","","","","","","","","","","","","","","","","","","","","","","","","","","","","","","","","",""
"","numerosity","html-keyboard-response","233","442034","0.0-74.0-1.0","24","female","null","[Dot display: left=300, right=264, diff=36]","null","","-1","-1","300","264","36","","","","","","","","","","","","","","","","","","","","","","","","","","","","","","","",""
"","confidence_first","html-keyboard-response","234","443870","0.0-74.0-2.0","24","female","1829.4000000059605","Confidence judgement (first response)","","","-1","-1","","","","right","74.75","50","74.75","false","36","","","","","","","","","","","","","","","","","","","","","","","","","",""
"","forced_advice_display","html-button-response","235","444985","0.0-74.0-4.0-0.0","24","female","1112","forcedAdvice","0","","-1","-1","","","","","","","","","","","","","","","","","","","","","","","","","","","","","","","","","","",""
"","show_advice","html-keyboard-response","236","445794","0.0-74.0-4.0-1.0","24","female","null","[advice: left]","null","","-1","-1","","","","","","","","","","","left","","","","","","","","","","","","","","","","","","","","","","","",""
"","confidence_second","html-keyboard-response","237","448003","0.0-74.0-6.0","24","female","2204.5999999940395","Confidence judgment (second response)","","","-1","-1","","","","left","86.5","86.5","50","true","36","","","","","","","","","","","","","","","","","","","","","","","","","",""
"","consolidated-trial-data","consolidated-trial-data","238","448006","0.0-75.0","24","female","null","consolidated-trial-data","null","","","","","","","","","","","","","","","1","3","18","300","264","36","right","74.75","false","1829.4000000059605","2","yes","left","left","86.5","true","true","2204.5999999940395","","","","","",""
"","block_message","html-button-response","239","449502","0.0-76.0","24","female","1493","block message","0","","","","","","","","","","","","","2","","","","","","","","","","","","","","","","","","","","","","","","",""
"","fixation","html-keyboard-response","240","449989","0.0-77.0-0.0","24","female","null","fixation","null","","-1","-1","","","","","","","","","","","","","","","","","","","","","","","","","","","","","","","","","","",""
"","numerosity","html-keyboard-response","241","450500","0.0-77.0-1.0","24","female","null","[Dot display: left=300, right=264, diff=36]","null","","-1","-1","300","264","36","","","","","","","","","","","","","","","","","","","","","","","","","","","","","","","",""
"","confidence_first","html-keyboard-response","242","452886","0.0-77.0-2.0","24","female","2383.5","Confidence judgement (first response)","","","-1","-1","","","","right","84.75","50","84.75","false","37","","","","","","","","","","","","","","","","","","","","","","","","","",""
"","advice_choice","html-button-response","243","454452","0.0-77.0-3.0-0.0","24","female","1564","[advice choice Y,N]","0","","-1","-1","","","","","","","","","","","","","","","","","","","","","","","","","","","","","","","","","","",""
"","show_advice","html-keyboard-response","244","455258","0.0-77.0-3.0-1.0-0.0","24","female","null","[advice: left]","null","","-1","-1","","","","","","","","","","","left","","","","","","","","","","","","","","","","","","","","","","","",""
"","confidence_second","html-keyboard-response","245","456869","0.0-77.0-6.0","24","female","1607.699999988079","Confidence judgment (second response)","","","-1","-1","","","","left","76.75","76.75","50","true","37","","","","","","","","","","","","","","","","","","","","","","","","","",""
"","consolidated-trial-data","consolidated-trial-data","246","456873","0.0-78.0","24","female","null","consolidated-trial-data","null","","","","","","","","","","","","","","","1","4","19","300","264","36","right","84.75","false","2383.5","1","yes","left","left","76.75","true","true","1607.699999988079","","","","","",""
"","attncheck","html-button-response","247","460453","0.0-79.0","24","female","3578","attncheck","0","","","","","","","","","","","","","","","","","","","","","","","","","","","","","","","","","true","Stop","","","",""
"","fixation","html-keyboard-response","248","460704","0.0-80.0-0.0","24","female","null","fixation","null","","-1","-1","","","","","","","","","","","","","","","","","","","","","","","","","","","","","","","","","","",""
"","numerosity","html-keyboard-response","249","461215","0.0-80.0-1.0","24","female","null","[Dot display: left=300, right=263, diff=37]","null","","-1","-1","300","263","37","","","","","","","","","","","","","","","","","","","","","","","","","","","","","","","",""
"","confidence_first","html-keyboard-response","250","462953","0.0-80.0-2.0","24","female","1734.6000000238419","Confidence judgement (first response)","","","-1","-1","","","","left","80.25","80.25","50","true","37","","","","","","","","","","","","","","","","","","","","","","","","","",""
"","no_advice_display","html-button-response","251","464103","0.0-80.0-5.0-0.0","24","female","1148","noAdvice","0","","-1","-1","","","","","","","","","","","","","","","","","","","","","","","","","","","","","","","","","","",""
"","blank_screen","html-keyboard-response","252","464914","0.0-80.0-5.0-1.0","24","female","null","blank","null","","-1","-1","","","","","","","","","","","","","","","","","","","","","","","","","","","","","","","","","","",""
"","confidence_second","html-keyboard-response","253","466004","0.0-80.0-6.0","24","female","1086","Confidence judgment (second response)","","","-1","-1","","","","left","80.25","80.25","50","true","36","","","","","","","","","","","","","","","","","","","","","","","","","",""
"","consolidated-trial-data","consolidated-trial-data","254","466007","0.0-81.0","24","female","null","consolidated-trial-data","null","","","","","","","","","","","","","","","1","5","20","300","263","37","left","80.25","true","1734.6000000238419","3","yes","left","left","80.25","true","true","1086","","","","","",""
"","fixation","html-keyboard-response","255","466244","0.0-82.0-0.0","24","female","null","fixation","null","","-1","-1","","","","","","","","","","","","","","","","","","","","","","","","","","","","","","","","","","",""
"","numerosity","html-keyboard-response","256","466756","0.0-82.0-1.0","24","female","null","[Dot display: left=300, right=264, diff=36]","null","","-1","-1","300","264","36","","","","","","","","","","","","","","","","","","","","","","","","","","","","","","","",""
"","confidence_first","html-keyboard-response","257","468870","0.0-82.0-2.0","24","female","2111.2999999821186","Confidence judgement (first response)","","","-1","-1","","","","right","88","50","88","false","37","","","","","","","","","","","","","","","","","","","","","","","","","",""
"","no_advice_display","html-button-response","258","470187","0.0-82.0-5.0-0.0","24","female","1315","noAdvice","0","","-1","-1","","","","","","","","","","","","","","","","","","","","","","","","","","","","","","","","","","",""
"","blank_screen","html-keyboard-response","259","470993","0.0-82.0-5.0-1.0","24","female","null","blank","null","","-1","-1","","","","","","","","","","","","","","","","","","","","","","","","","","","","","","","","","","",""
"","confidence_second","html-keyboard-response","260","472238","0.0-82.0-6.0","24","female","1240.3999999761581","Confidence judgment (second response)","","","-1","-1","","","","right","88","50","88","false","38","","","","","","","","","","","","","","","","","","","","","","","","","",""
"","consolidated-trial-data","consolidated-trial-data","261","472241","0.0-83.0","24","female","null","consolidated-trial-data","null","","","","","","","","","","","","","","","1","6","21","300","264","36","right","88","false","2111.2999999821186","3","yes","left","right","88","true","false","1240.3999999761581","","","","","",""
"","fixation","html-keyboard-response","262","472680","0.0-84.0-0.0","24","female","null","fixation","null","","-1","-1","","","","","","","","","","","","","","","","","","","","","","","","","","","","","","","","","","",""
"","numerosity","html-keyboard-response","263","473190","0.0-84.0-1.0","24","female","null","[Dot display: left=262, right=300, diff=38]","null","","-1","-1","262","300","38","","","","","","","","","","","","","","","","","","","","","","","","","","","","","","","",""
"","confidence_first","html-keyboard-response","264","475322","0.0-84.0-2.0","24","female","2127.9000000059605","Confidence judgement (first response)","","","-1","-1","","","","right","82","50","82","true","38","","","","","","","","","","","","","","","","","","","","","","","","","",""
"","no_advice_display","html-button-response","265","476620","0.0-84.0-5.0-0.0","24","female","1296","noAdvice","0","","-1","-1","","","","","","","","","","","","","","","","","","","","","","","","","","","","","","","","","","",""
"","blank_screen","html-keyboard-response","266","477429","0.0-84.0-5.0-1.0","24","female","null","blank","null","","-1","-1","","","","","","","","","","","","","","","","","","","","","","","","","","","","","","","","","","",""
"","confidence_second","html-keyboard-response","267","478571","0.0-84.0-6.0","24","female","1138.800000011921","Confidence judgment (second response)","","","-1","-1","","","","right","82","50","82","true","37","","","","","","","","","","","","","","","","","","","","","","","","","",""
"","consolidated-trial-data","consolidated-trial-data","268","478575","0.0-85.0","24","female","null","consolidated-trial-data","null","","","","","","","","","","","","","","","1","7","22","262","300","38","right","82","true","2127.9000000059605","3","yes","left","right","82","false","true","1138.800000011921","","","","","",""
"","fixation","html-keyboard-response","269","479059","0.0-86.0-0.0","24","female","null","fixation","null","","-1","-1","","","","","","","","","","","","","","","","","","","","","","","","","","","","","","","","","","",""
"","numerosity","html-keyboard-response","270","479571","0.0-86.0-1.0","24","female","null","[Dot display: left=263, right=300, diff=37]","null","","-1","-1","263","300","37","","","","","","","","","","","","","","","","","","","","","","","","","","","","","","","",""
"","confidence_first","html-keyboard-response","271","481823","0.0-86.0-2.0","24","female","2247.699999988079","Confidence judgement (first response)","","","-1","-1","","","","left","74.75","74.75","50","false","38","","","","","","","","","","","","","","","","","","","","","","","","","",""
"","advice_choice","html-button-response","272","482721","0.0-86.0-3.0-0.0","24","female","896","[advice choice Y,N]","0","","-1","-1","","","","","","","","","","","","","","","","","","","","","","","","","","","","","","","","","","",""
"","show_advice","html-keyboard-response","273","483529","0.0-86.0-3.0-1.0-0.0","24","female","null","[advice: right]","null","","-1","-1","","","","","","","","","","","right","","","","","","","","","","","","","","","","","","","","","","","",""
"","confidence_second","html-keyboard-response","274","486139","0.0-86.0-6.0","24","female","2606.300000011921","Confidence judgment (second response)","","","-1","-1","","","","right","76.5","50","76.5","true","38","","","","","","","","","","","","","","","","","","","","","","","","","",""
"","consolidated-trial-data","consolidated-trial-data","275","486142","0.0-87.0","24","female","null","consolidated-trial-data","null","","","","","","","","","","","","","","","1","8","23","263","300","37","left","74.75","false","2247.699999988079","1","yes","right","right","76.5","true","true","2606.300000011921","","","","","",""
"","block_message","html-button-response","276","488222","0.0-88.0","24","female","2077","block message","0","","","","","","","","","","","","","2","","","","","","","","","","","","","","","","","","","","","","","","",""
"","fixation","html-keyboard-response","277","488685","0.0-89.0-0.0","24","female","null","fixation","null","","-1","-1","","","","","","","","","","","","","","","","","","","","","","","","","","","","","","","","","","",""
"","numerosity","html-keyboard-response","278","489201","0.0-89.0-1.0","24","female","null","[Dot display: left=300, right=262, diff=38]","null","","-1","-1","300","262","38","","","","","","","","","","","","","","","","","","","","","","","","","","","","","","","",""
"","confidence_first","html-keyboard-response","279","492189","0.0-89.0-2.0","24","female","2984.7999999821186","Confidence judgement (first response)","","","-1","-1","","","","left","79","79","50","true","38","","","","","","","","","","","","","","","","","","","","","","","","","",""
"","advice_choice","html-button-response","280","493439","0.0-89.0-3.0-0.0","24","female","1247","[advice choice Y,N]","0","","-1","-1","","","","","","","","","","","","","","","","","","","","","","","","","","","","","","","","","","",""
"","show_advice","html-keyboard-response","281","494249","0.0-89.0-3.0-1.0-0.0","24","female","null","[advice: left]","null","","-1","-1","","","","","","","","","","","left","","","","","","","","","","","","","","","","","","","","","","","",""
"","confidence_second","html-keyboard-response","282","494907","0.0-89.0-6.0","24","female","654.2999999821186","Confidence judgment (second response)","","","-1","-1","","","","left","79","79","50","true","38","","","","","","","","","","","","","","","","","","","","","","","","","",""
"","consolidated-trial-data","consolidated-trial-data","283","494910","0.0-90.0","24","female","null","consolidated-trial-data","null","","","","","","","","","","","","","","","1","9","24","300","262","38","left","79","true","2984.7999999821186","1","yes","left","left","79","true","true","654.2999999821186","","","","","",""
"","fixation","html-keyboard-response","284","495205","0.0-91.0-0.0","24","female","null","fixation","null","","-1","-1","","","","","","","","","","","","","","","","","","","","","","","","","","","","","","","","","","",""
"","numerosity","html-keyboard-response","285","495716","0.0-91.0-1.0","24","female","null","[Dot display: left=300, right=262, diff=38]","null","","-1","-1","300","262","38","","","","","","","","","","","","","","","","","","","","","","","","","","","","","","","",""
"","confidence_first","html-keyboard-response","286","497272","0.0-91.0-2.0","24","female","1553.2999999821186","Confidence judgement (first response)","","","-1","-1","","","","right","83.75","50","83.75","false","38","","","","","","","","","","","","","","","","","","","","","","","","","",""
"","forced_advice_display","html-button-response","287","498689","0.0-91.0-4.0-0.0","24","female","1415","forcedAdvice","0","","-1","-1","","","","","","","","","","","","","","","","","","","","","","","","","","","","","","","","","","",""
"","show_advice","html-keyboard-response","288","499500","0.0-91.0-4.0-1.0","24","female","null","[advice: left]","null","","-1","-1","","","","","","","","","","","left","","","","","","","","","","","","","","","","","","","","","","","",""
"","confidence_second","html-keyboard-response","289","501161","0.0-91.0-6.0","24","female","1651.7000000178814","Confidence judgment (second response)","","","-1","-1","","","","left","76.75","76.75","50","true","38","","","","","","","","","","","","","","","","","","","","","","","","","",""
"","consolidated-trial-data","consolidated-trial-data","290","501164","0.0-92.0","24","female","null","consolidated-trial-data","null","","","","","","","","","","","","","","","1","10","25","300","262","38","right","83.75","false","1553.2999999821186","2","yes","left","left","76.75","true","true","1651.7000000178814","","","","","",""
"","fixation","html-keyboard-response","291","501611","0.0-93.0-0.0","24","female","null","fixation","null","","-1","-1","","","","","","","","","","","","","","","","","","","","","","","","","","","","","","","","","","",""
"","numerosity","html-keyboard-response","292","502126","0.0-93.0-1.0","24","female","null","[Dot display: left=262, right=300, diff=38]","null","","-1","-1","262","300","38","","","","","","","","","","","","","","","","","","","","","","","","","","","","","","","",""
"","confidence_first","html-keyboard-response","293","503724","0.0-93.0-2.0","24","female","1595.300000011921","Confidence judgement (first response)","","","-1","-1","","","","right","80.25","50","80.25","true","38","","","","","","","","","","","","","","","","","","","","","","","","","",""
"","no_advice_display","html-button-response","294","505338","0.0-93.0-5.0-0.0","24","female","1612","noAdvice","0","","-1","-1","","","","","","","","","","","","","","","","","","","","","","","","","","","","","","","","","","",""
"","blank_screen","html-keyboard-response","295","506145","0.0-93.0-5.0-1.0","24","female","null","blank","null","","-1","-1","","","","","","","","","","","","","","","","","","","","","","","","","","","","","","","","","","",""
"","confidence_second","html-keyboard-response","296","507172","0.0-93.0-6.0","24","female","1024.0999999940395","Confidence judgment (second response)","","","-1","-1","","","","right","80.25","50","80.25","true","38","","","","","","","","","","","","","","","","","","","","","","","","","",""
"","consolidated-trial-data","consolidated-trial-data","297","507176","0.0-94.0","24","female","null","consolidated-trial-data","null","","","","","","","","","","","","","","","1","11","26","262","300","38","right","80.25","true","1595.300000011921","3","yes","left","right","80.25","false","true","1024.0999999940395","","","","","",""
"","fixation","html-keyboard-response","298","507680","0.0-95.0-0.0","24","female","null","fixation","null","","-1","-1","","","","","","","","","","","","","","","","","","","","","","","","","","","","","","","","","","",""
"","numerosity","html-keyboard-response","299","508197","0.0-95.0-1.0","24","female","null","[Dot display: left=262, right=300, diff=38]","null","","-1","-1","262","300","38","","","","","","","","","","","","","","","","","","","","","","","","","","","","","","","",""
"","confidence_first","html-keyboard-response","300","510407","0.0-95.0-2.0","24","female","2206.399999976158","Confidence judgement (first response)","","","-1","-1","","","","right","84","50","84","true","38","","","","","","","","","","","","","","","","","","","","","","","","","",""
"","forced_advice_display","html-button-response","301","511673","0.0-95.0-4.0-0.0","24","female","1264","forcedAdvice","0","","-1","-1","","","","","","","","","","","","","","","","","","","","","","","","","","","","","","","","","","",""
"","show_advice","html-keyboard-response","302","512481","0.0-95.0-4.0-1.0","24","female","null","[advice: right]","null","","-1","-1","","","","","","","","","","","right","","","","","","","","","","","","","","","","","","","","","","","",""
"","confidence_second","html-keyboard-response","303","514324","0.0-95.0-6.0","24","female","1839.4000000059605","Confidence judgment (second response)","","","-1","-1","","","","right","99.5","50","99.5","true","38","","","","","","","","","","","","","","","","","","","","","","","","","",""
"","consolidated-trial-data","consolidated-trial-data","304","514327","0.0-96.0","24","female","null","consolidated-trial-data","null","","","","","","","","","","","","","","","1","12","27","262","300","38","right","84","true","2206.399999976158","2","yes","right","right","99.5","true","true","1839.4000000059605","","","","","",""
"","fixation","html-keyboard-response","305","514830","0.0-97.0-0.0","24","female","null","fixation","null","","-1","-1","","","","","","","","","","","","","","","","","","","","","","","","","","","","","","","","","","",""
"","numerosity","html-keyboard-response","306","515341","0.0-97.0-1.0","24","female","null","[Dot display: left=300, right=262, diff=38]","null","","-1","-1","300","262","38","","","","","","","","","","","","","","","","","","","","","","","","","","","","","","","",""
"","confidence_first","html-keyboard-response","307","517675","0.0-97.0-2.0","24","female","2330.399999976158","Confidence judgement (first response)","","","-1","-1","","","","right","79.75","50","79.75","false","38","","","","","","","","","","","","","","","","","","","","","","","","","",""
"","no_advice_display","html-button-response","308","518823","0.0-97.0-5.0-0.0","24","female","1147","noAdvice","0","","-1","-1","","","","","","","","","","","","","","","","","","","","","","","","","","","","","","","","","","",""
"","blank_screen","html-keyboard-response","309","519631","0.0-97.0-5.0-1.0","24","female","null","blank","null","","-1","-1","","","","","","","","","","","","","","","","","","","","","","","","","","","","","","","","","","",""
"","confidence_second","html-keyboard-response","310","520857","0.0-97.0-6.0","24","female","1222.5","Confidence judgment (second response)","","","-1","-1","","","","right","79.75","50","79.75","false","39","","","","","","","","","","","","","","","","","","","","","","","","","",""
"","consolidated-trial-data","consolidated-trial-data","311","520861","0.0-98.0","24","female","null","consolidated-trial-data","null","","","","","","","","","","","","","","","1","13","28","300","262","38","right","79.75","false","2330.399999976158","3","yes","right","right","79.75","false","false","1222.5","","","","","",""
"","fixation","html-keyboard-response","312","521176","0.0-99.0-0.0","24","female","null","fixation","null","","-1","-1","","","","","","","","","","","","","","","","","","","","","","","","","","","","","","","","","","",""
"","numerosity","html-keyboard-response","313","521687","0.0-99.0-1.0","24","female","null","[Dot display: left=261, right=300, diff=39]","null","","-1","-1","261","300","39","","","","","","","","","","","","","","","","","","","","","","","","","","","","","","","",""
"","confidence_first","html-keyboard-response","314","523057","0.0-99.0-2.0","24","female","1366.800000011921","Confidence judgement (first response)","","","-1","-1","","","","right","76.25","50","76.25","true","39","","","","","","","","","","","","","","","","","","","","","","","","","",""
"","advice_choice","html-button-response","315","524291","0.0-99.0-3.0-0.0","24","female","1231","[advice choice Y,N]","0","","-1","-1","","","","","","","","","","","","","","","","","","","","","","","","","","","","","","","","","","",""
"","show_advice","html-keyboard-response","316","525101","0.0-99.0-3.0-1.0-0.0","24","female","null","[advice: right]","null","","-1","-1","","","","","","","","","","","right","","","","","","","","","","","","","","","","","","","","","","","",""
"","confidence_second","html-keyboard-response","317","527858","0.0-99.0-6.0","24","female","2753.4000000059605","Confidence judgment (second response)","","","-1","-1","","","","right","98.25","50","98.25","true","38","","","","","","","","","","","","","","","","","","","","","","","","","",""
"","consolidated-trial-data","consolidated-trial-data","318","527860","0.0-100.0","24","female","null","consolidated-trial-data","null","","","","","","","","","","","","","","","1","14","29","261","300","39","right","76.25","true","1366.800000011921","1","yes","right","right","98.25","true","true","2753.4000000059605","","","","","",""
"","block_message","html-button-response","319","529307","0.0-101.0","24","female","1444","block message","0","","","","","","","","","","","","","3","","","","","","","","","","","","","","","","","","","","","","","","",""
"","fixation","html-keyboard-response","320","529551","0.0-102.0-0.0","24","female","null","fixation","null","","-1","-1","","","","","","","","","","","","","","","","","","","","","","","","","","","","","","","","","","",""
"","numerosity","html-keyboard-response","321","530061","0.0-102.0-1.0","24","female","null","[Dot display: left=300, right=262, diff=38]","null","","-1","-1","300","262","38","","","","","","","","","","","","","","","","","","","","","","","","","","","","","","","",""
"","confidence_first","html-keyboard-response","322","532775","0.0-102.0-2.0","24","female","2709.800000011921","Confidence judgement (first response)","","","-1","-1","","","","left","74.75","74.75","50","true","38","","","","","","","","","","","","","","","","","","","","","","","","","",""
"","forced_advice_display","html-button-response","323","533839","0.0-102.0-4.0-0.0","24","female","1063","forcedAdvice","0","","-1","-1","","","","","","","","","","","","","","","","","","","","","","","","","","","","","","","","","","",""
"","show_advice","html-keyboard-response","324","534646","0.0-102.0-4.0-1.0","24","female","null","[advice: left]","null","","-1","-1","","","","","","","","","","","left","","","","","","","","","","","","","","","","","","","","","","","",""
"","confidence_second","html-keyboard-response","325","537259","0.0-102.0-6.0","24","female","2610","Confidence judgment (second response)","","","-1","-1","","","","left","99.5","99.5","50","true","38","","","","","","","","","","","","","","","","","","","","","","","","","",""
"","consolidated-trial-data","consolidated-trial-data","326","537261","0.0-103.0","24","female","null","consolidated-trial-data","null","","","","","","","","","","","","","","","2","0","30","300","262","38","left","74.75","true","2709.800000011921","2","yes","left","left","99.5","true","true","2610","","","","","",""
"","fixation","html-keyboard-response","327","537581","0.0-104.0-0.0","24","female","null","fixation","null","","-1","-1","","","","","","","","","","","","","","","","","","","","","","","","","","","","","","","","","","",""
"","numerosity","html-keyboard-response","328","538092","0.0-104.0-1.0","24","female","null","[Dot display: left=300, right=262, diff=38]","null","","-1","-1","300","262","38","","","","","","","","","","","","","","","","","","","","","","","","","","","","","","","",""
"","confidence_first","html-keyboard-response","329","540074","0.0-104.0-2.0","24","female","1979.300000011921","Confidence judgement (first response)","","","-1","-1","","","","right","88.5","50","88.5","false","39","","","","","","","","","","","","","","","","","","","","","","","","","",""
"","forced_advice_display","html-button-response","330","541191","0.0-104.0-4.0-0.0","24","female","1115","forcedAdvice","0","","-1","-1","","","","","","","","","","","","","","","","","","","","","","","","","","","","","","","","","","",""
"","show_advice","html-keyboard-response","331","542001","0.0-104.0-4.0-1.0","24","female","null","[advice: left]","null","","-1","-1","","","","","","","","","","","left","","","","","","","","","","","","","","","","","","","","","","","",""
"","confidence_second","html-keyboard-response","332","544458","0.0-104.0-6.0","24","female","2454.4000000059605","Confidence judgment (second response)","","","-1","-1","","","","left","95.75","95.75","50","true","39","","","","","","","","","","","","","","","","","","","","","","","","","",""
"","consolidated-trial-data","consolidated-trial-data","333","544462","0.0-105.0","24","female","null","consolidated-trial-data","null","","","","","","","","","","","","","","","2","1","31","300","262","38","right","88.5","false","1979.300000011921","2","yes","left","left","95.75","true","true","2454.4000000059605","","","","","",""
"","fixation","html-keyboard-response","334","544786","0.0-106.0-0.0","24","female","null","fixation","null","","-1","-1","","","","","","","","","","","","","","","","","","","","","","","","","","","","","","","","","","",""
"","numerosity","html-keyboard-response","335","545297","0.0-106.0-1.0","24","female","null","[Dot display: left=300, right=261, diff=39]","null","","-1","-1","300","261","39","","","","","","","","","","","","","","","","","","","","","","","","","","","","","","","",""
"","confidence_first","html-keyboard-response","336","547543","0.0-106.0-2.0","24","female","2242.800000011921","Confidence judgement (first response)","","","-1","-1","","","","left","69.75","69.75","50","true","38","","","","","","","","","","","","","","","","","","","","","","","","","",""
"","advice_choice","html-button-response","337","549025","0.0-106.0-3.0-0.0","24","female","1480","[advice choice Y,N]","0","","-1","-1","","","","","","","","","","","","","","","","","","","","","","","","","","","","","","","","","","",""
"","show_advice","html-keyboard-response","338","549831","0.0-106.0-3.0-1.0-0.0","24","female","null","[advice: left]","null","","-1","-1","","","","","","","","","","","left","","","","","","","","","","","","","","","","","","","","","","","",""
"","confidence_second","html-keyboard-response","339","552393","0.0-106.0-6.0","24","female","2557.9000000059605","Confidence judgment (second response)","","","-1","-1","","","","left","99.5","99.5","50","true","38","","","","","","","","","","","","","","","","","","","","","","","","","",""
"","consolidated-trial-data","consolidated-trial-data","340","552395","0.0-107.0","24","female","null","consolidated-trial-data","null","","","","","","","","","","","","","","","2","2","32","300","261","39","left","69.75","true","2242.800000011921","1","yes","left","left","99.5","true","true","2557.9000000059605","","","","","",""
"","fixation","html-keyboard-response","341","552736","0.0-108.0-0.0","24","female","null","fixation","null","","-1","-1","","","","","","","","","","","","","","","","","","","","","","","","","","","","","","","","","","",""
"","numerosity","html-keyboard-response","342","553248","0.0-108.0-1.0","24","female","null","[Dot display: left=300, right=262, diff=38]","null","","-1","-1","300","262","38","","","","","","","","","","","","","","","","","","","","","","","","","","","","","","","",""
"","confidence_first","html-keyboard-response","343","555260","0.0-108.0-2.0","24","female","2008.5","Confidence judgement (first response)","","","-1","-1","","","","right","77.25","50","77.25","false","39","","","","","","","","","","","","","","","","","","","","","","","","","",""
"","forced_advice_display","html-button-response","344","556059","0.0-108.0-4.0-0.0","24","female","797","forcedAdvice","0","","-1","-1","","","","","","","","","","","","","","","","","","","","","","","","","","","","","","","","","","",""
"","show_advice","html-keyboard-response","345","556867","0.0-108.0-4.0-1.0","24","female","null","[advice: left]","null","","-1","-1","","","","","","","","","","","left","","","","","","","","","","","","","","","","","","","","","","","",""
"","confidence_second","html-keyboard-response","346","558109","0.0-108.0-6.0","24","female","1237.0999999940395","Confidence judgment (second response)","","","-1","-1","","","","left","96","96","50","true","39","","","","","","","","","","","","","","","","","","","","","","","","","",""
"","consolidated-trial-data","consolidated-trial-data","347","558112","0.0-109.0","24","female","null","consolidated-trial-data","null","","","","","","","","","","","","","","","2","3","33","300","262","38","right","77.25","false","2008.5","2","yes","left","left","96","true","true","1237.0999999940395","","","","","",""
"","block_message","html-button-response","348","559526","0.0-110.0","24","female","1412","block message","0","","","","","","","","","","","","","3","","","","","","","","","","","","","","","","","","","","","","","","",""
"","fixation","html-keyboard-response","349","560012","0.0-111.0-0.0","24","female","null","fixation","null","","-1","-1","","","","","","","","","","","","","","","","","","","","","","","","","","","","","","","","","","",""
"","numerosity","html-keyboard-response","350","560521","0.0-111.0-1.0","24","female","null","[Dot display: left=300, right=261, diff=39]","null","","-1","-1","300","261","39","","","","","","","","","","","","","","","","","","","","","","","","","","","","","","","",""
"","confidence_first","html-keyboard-response","351","563392","0.0-111.0-2.0","24","female","2864.199999988079","Confidence judgement (first response)","","","-1","-1","","","","left","75.25","75.25","50","true","39","","","","","","","","","","","","","","","","","","","","","","","","","",""
"","advice_choice","html-button-response","352","564460","0.0-111.0-3.0-0.0","24","female","1066","[advice choice Y,N]","0","","-1","-1","","","","","","","","","","","","","","","","","","","","","","","","","","","","","","","","","","",""
"","show_advice","html-keyboard-response","353","565268","0.0-111.0-3.0-1.0-0.0","24","female","null","[advice: left]","null","","-1","-1","","","","","","","","","","","left","","","","","","","","","","","","","","","","","","","","","","","",""
"","confidence_second","html-keyboard-response","354","567327","0.0-111.0-6.0","24","female","2055.100000023842","Confidence judgment (second response)","","","-1","-1","","","","left","99","99","50","true","39","","","","","","","","","","","","","","","","","","","","","","","","","",""
"","consolidated-trial-data","consolidated-trial-data","355","567330","0.0-112.0","24","female","null","consolidated-trial-data","null","","","","","","","","","","","","","","","2","4","34","300","261","39","left","75.25","true","2864.199999988079","1","yes","left","left","99","true","true","2055.100000023842","","","","","",""
"","fixation","html-keyboard-response","356","567642","0.0-113.0-0.0","24","female","null","fixation","null","","-1","-1","","","","","","","","","","","","","","","","","","","","","","","","","","","","","","","","","","",""
"","numerosity","html-keyboard-response","357","568153","0.0-113.0-1.0","24","female","null","[Dot display: left=300, right=261, diff=39]","null","","-1","-1","300","261","39","","","","","","","","","","","","","","","","","","","","","","","","","","","","","","","",""
"","confidence_first","html-keyboard-response","358","572042","0.0-113.0-2.0","24","female","3886.5999999940395","Confidence judgement (first response)","","","-1","-1","","","","right","83","50","83","false","39","","","","","","","","","","","","","","","","","","","","","","","","","",""
"","no_advice_display","html-button-response","359","573509","0.0-113.0-5.0-0.0","24","female","1464","noAdvice","0","","-1","-1","","","","","","","","","","","","","","","","","","","","","","","","","","","","","","","","","","",""
"","blank_screen","html-keyboard-response","360","574318","0.0-113.0-5.0-1.0","24","female","null","blank","null","","-1","-1","","","","","","","","","","","","","","","","","","","","","","","","","","","","","","","","","","",""
"","confidence_second","html-keyboard-response","361","575710","0.0-113.0-6.0","24","female","1388.5","Confidence judgment (second response)","","","-1","-1","","","","right","83","50","83","false","40","","","","","","","","","","","","","","","","","","","","","","","","","",""
"","consolidated-trial-data","consolidated-trial-data","362","575713","0.0-114.0","24","female","null","consolidated-trial-data","null","","","","","","","","","","","","","","","2","5","35","300","261","39","right","83","false","3886.5999999940395","3","yes","left","right","83","true","false","1388.5","","","","","",""
"","attncheck","html-button-response","363","577793","0.0-115.0","24","female","2070","attncheck","1","","","","","","","","","","","","","","","","","","","","","","","","","","","","","","","","","true","Continue","","","",""
"","fixation","html-keyboard-response","364","578027","0.0-116.0-0.0","24","female","null","fixation","null","","-1","-1","","","","","","","","","","","","","","","","","","","","","","","","","","","","","","","","","","",""
"","numerosity","html-keyboard-response","365","578539","0.0-116.0-1.0","24","female","null","[Dot display: left=300, right=260, diff=40]","null","","-1","-1","300","260","40","","","","","","","","","","","","","","","","","","","","","","","","","","","","","","","",""
"","confidence_first","html-keyboard-response","366","580194","0.0-116.0-2.0","24","female","1652.0999999940395","Confidence judgement (first response)","","","-1","-1","","","","left","75","75","50","true","40","","","","","","","","","","","","","","","","","","","","","","","","","",""
"","no_advice_display","html-button-response","367","581077","0.0-116.0-5.0-0.0","24","female","881","noAdvice","0","","-1","-1","","","","","","","","","","","","","","","","","","","","","","","","","","","","","","","","","","",""
"","blank_screen","html-keyboard-response","368","581887","0.0-116.0-5.0-1.0","24","female","null","blank","null","","-1","-1","","","","","","","","","","","","","","","","","","","","","","","","","","","","","","","","","","",""
"","confidence_second","html-keyboard-response","369","583027","0.0-116.0-6.0","24","female","1136.5999999940395","Confidence judgment (second response)","","","-1","-1","","","","left","75","75","50","true","39","","","","","","","","","","","","","","","","","","","","","","","","","",""
"","consolidated-trial-data","consolidated-trial-data","370","583029","0.0-117.0","24","female","null","consolidated-trial-data","null","","","","","","","","","","","","","","","2","6","36","300","260","40","left","75","true","1652.0999999940395","3","yes","left","left","75","true","true","1136.5999999940395","","","","","",""
"","fixation","html-keyboard-response","371","583378","0.0-118.0-0.0","24","female","null","fixation","null","","-1","-1","","","","","","","","","","","","","","","","","","","","","","","","","","","","","","","","","","",""
