"rt","stimulus","response","task","trial_type","trial_index","time_elapsed","internal_node_id","participant_age","participant_gender","pixels_per_unit","itrial","iblock","leftDots","rightDots","difference","selected_side","confidence_value","left_confidence","right_confidence","correct","threshold","block_num","advice_direction","block","trial","trialid","dotsLeft","dotsRight","dotsDiff","selectedSide_first","confidence_first","adviceCond","adviceChoice","adviceDir","selectedSide_second","confidence_second","adviceCorrect","attention_check_correct","target_button","top_prompt","bottom_prompt","top_response","bottom_response"
"978","welcome_msg","0","welcome","html-button-response","0","992","0.0-0.0","32","prefer_not_to_say","","","","","","","","","","","","","","","","","","","","","","","","","","","","","","","","","",""
"1126","PISdoc","0","PISdoc","html-button-response","1","2130","0.0-1.0","32","prefer_not_to_say","","","","","","","","","","","","","","","","","","","","","","","","","","","","","","","","","",""
"4819","","{""age"":""32"",""gender"":""prefer_not_to_say""}","demographics","survey-html-form","2","6954","0.0-2.0","32","prefer_not_to_say","","","","","","","","","","","","","","","","","","","","","","","","","","","","","","","","","",""
"2181","","{""felt_panic"":"""",""no_initiative"":"""",""felt_blue"":"""",""was_intolerant"":"""",""nothing_forward"":"""",""felt_scared"":"""",""over_react"":"""",""felt_worry"":"""",""no_relax"":"""",""no_positive"":"""",""felt_annoyed"":"""",""EOL_thoughts"":""""}","dass10","survey-likert","3","9142","0.0-3.0","32","prefer_not_to_say","","","","","","","","","","","","","","","","","","","","","","","","","","","","","","","","","",""
"6822","pracInstruc","0","pracInstructions","html-button-response","4","15967","0.0-4.0-0.0","32","prefer_not_to_say","","","","","","","","","","","","","","","","","","","","","","","","","","","","","","","","","",""
"13286","pracInstruc","0","pracInstructions","html-button-response","5","29258","0.0-4.0-0.1","32","prefer_not_to_say","","","","","","","","","","","","","","","","","","","","","","","","","","","","","","","","","",""
"192930","pracInstruc","0","pracInstructions","html-button-response","6","222188","0.0-4.0-0.2","32","prefer_not_to_say","","","","","","","","","","","","","","","","","","","","","","","","","","","","","","","","","",""
"7394","pracInstruc","0","pracInstructions","html-button-response","7","229584","0.0-4.0-0.3","32","prefer_not_to_say","","","","","","","","","","","","","","","","","","","","","","","","","","","","","","","","","",""
"309018","pracInstruc","0","pracInstructions","html-button-response","8","538604","0.0-4.0-0.4","32","prefer_not_to_say","","","","","","","","","","","","","","","","","","","","","","","","","","","","","","","","","",""
"5173","<div style= ""font-size: 24px; color: white"">
                        
                            <p>First, Please hold a credit card up to your screen.</p>
                            <p>Adjust this box until it matches the size of the credit card.</p>
                            <div id=""calibration-box"" style=""
                                width: 506px;
                                height: 319px;
                                border: 2px solid white;
                                background-color: rgba(255,255,255,0.2);
                                margin: 20px auto;
                                resize: both;
                                overflow: hidden;
                            ""></div>
                        </div>
                    ","0","","html-button-response","9","543779","0.0-5.0","32","prefer_not_to_say","113","","","","","","","","","","","","","","","","","","","","","","","","","","","","","","","","",""
"null","fixation","null","fixation","html-keyboard-response","10","544002","0.0-6.0-0.0","32","prefer_not_to_say","","-1","-1","","","","","","","","","","","","","","","","","","","","","","","","","","","","","","",""
"null","[Dot display: left=250, right=300, diff=50]","null","numerosity","html-keyboard-response","11","544529","0.0-6.0-1.0","32","prefer_not_to_say","","-1","-1","250","300","50","","","","","","","","","","","","","","","","","","","","","","","","","","","",""
"2554","Confidence judgement (first response)","","confidence_first","html-keyboard-response","12","547086","0.0-6.0-2.0","32","prefer_not_to_say","","-1","-1","","","","left","90.5","90.5","50","false","39","","","","","","","","","","","","","","","","","","","","","",""
"null","fixation","null","fixation","html-keyboard-response","13","547302","0.0-6.0-0.1","32","prefer_not_to_say","","-1","-1","","","","","","","","","","","","","","","","","","","","","","","","","","","","","","",""
"null","[Dot display: left=250, right=300, diff=50]","null","numerosity","html-keyboard-response","14","547818","0.0-6.0-1.1","32","prefer_not_to_say","","-1","-1","250","300","50","","","","","","","","","","","","","","","","","","","","","","","","","","","",""
"1592","Confidence judgement (first response)","","confidence_first","html-keyboard-response","15","549413","0.0-6.0-2.1","32","prefer_not_to_say","","-1","-1","","","","right","72","50","72","true","37","","","","","","","","","","","","","","","","","","","","","",""
"null","fixation","null","fixation","html-keyboard-response","16","549825","0.0-6.0-0.2","32","prefer_not_to_say","","-1","-1","","","","","","","","","","","","","","","","","","","","","","","","","","","","","","",""
"null","[Dot display: left=300, right=250, diff=50]","null","numerosity","html-keyboard-response","17","550343","0.0-6.0-1.2","32","prefer_not_to_say","","-1","-1","300","250","50","","","","","","","","","","","","","","","","","","","","","","","","","","","",""
"1659","Confidence judgement (first response)","","confidence_first","html-keyboard-response","18","552007","0.0-6.0-2.2","32","prefer_not_to_say","","-1","-1","","","","left","93","93","50","true","35","","","","","","","","","","","","","","","","","","","","","",""
"null","fixation","null","fixation","html-keyboard-response","19","552516","0.0-6.0-0.3","32","prefer_not_to_say","","-1","-1","","","","","","","","","","","","","","","","","","","","","","","","","","","","","","",""
"null","[Dot display: left=265, right=300, diff=35]","null","numerosity","html-keyboard-response","20","553033","0.0-6.0-1.3","32","prefer_not_to_say","","-1","-1","265","300","35","","","","","","","","","","","","","","","","","","","","","","","","","","","",""
"7197","Confidence judgement (first response)","","confidence_first","html-keyboard-response","21","560233","0.0-6.0-2.3","32","prefer_not_to_say","","-1","-1","","","","left","90","90","50","false","49","","","","","","","","","","","","","","","","","","","","","",""
"null","fixation","null","fixation","html-keyboard-response","22","560620","0.0-6.0-0.4","32","prefer_not_to_say","","-1","-1","","","","","","","","","","","","","","","","","","","","","","","","","","","","","","",""
"null","[Dot display: left=251, right=300, diff=49]","null","numerosity","html-keyboard-response","23","561134","0.0-6.0-1.4","32","prefer_not_to_say","","-1","-1","251","300","49","","","","","","","","","","","","","","","","","","","","","","","","","","","",""
"1390","Confidence judgement (first response)","","confidence_first","html-keyboard-response","24","562526","0.0-6.0-2.4","32","prefer_not_to_say","","-1","-1","","","","right","87","50","87","true","47","","","","","","","","","","","","","","","","","","","","","",""
"null","fixation","null","fixation","html-keyboard-response","25","562775","0.0-6.0-0.5","32","prefer_not_to_say","","-1","-1","","","","","","","","","","","","","","","","","","","","","","","","","","","","","","",""
"null","[Dot display: left=253, right=300, diff=47]","null","numerosity","html-keyboard-response","26","563286","0.0-6.0-1.5","32","prefer_not_to_say","","-1","-1","253","300","47","","","","","","","","","","","","","","","","","","","","","","","","","","","",""
"1653","Confidence judgement (first response)","","confidence_first","html-keyboard-response","27","564942","0.0-6.0-2.5","32","prefer_not_to_say","","-1","-1","","","","left","56.25","56.25","50","false","53","","","","","","","","","","","","","","","","","","","","","",""
"null","fixation","null","fixation","html-keyboard-response","28","565390","0.0-6.0-0.6","32","prefer_not_to_say","","-1","-1","","","","","","","","","","","","","","","","","","","","","","","","","","","","","","",""
"null","[Dot display: left=300, right=247, diff=53]","null","numerosity","html-keyboard-response","29","565903","0.0-6.0-1.6","32","prefer_not_to_say","","-1","-1","300","247","53","","","","","","","","","","","","","","","","","","","","","","","","","","","",""
"1309","Confidence judgement (first response)","","confidence_first","html-keyboard-response","30","567214","0.0-6.0-2.6","32","prefer_not_to_say","","-1","-1","","","","right","54.75","50","54.75","false","57","","","","","","","","","","","","","","","","","","","","","",""
"null","fixation","null","fixation","html-keyboard-response","31","567569","0.0-6.0-0.7","32","prefer_not_to_say","","-1","-1","","","","","","","","","","","","","","","","","","","","","","","","","","","","","","",""
"null","[Dot display: left=300, right=243, diff=57]","null","numerosity","html-keyboard-response","32","568108","0.0-6.0-1.7","32","prefer_not_to_say","","-1","-1","300","243","57","","","","","","","","","","","","","","","","","","","","","","","","","","","",""
"1406","Confidence judgement (first response)","","confidence_first","html-keyboard-response","33","569518","0.0-6.0-2.7","32","prefer_not_to_say","","-1","-1","","","","left","95","95","50","true","56","","","","","","","","","","","","","","","","","","","","","",""
"null","fixation","null","fixation","html-keyboard-response","34","569766","0.0-6.0-0.8","32","prefer_not_to_say","","-1","-1","","","","","","","","","","","","","","","","","","","","","","","","","","","","","","",""
"null","[Dot display: left=244, right=300, diff=56]","null","numerosity","html-keyboard-response","35","570282","0.0-6.0-1.8","32","prefer_not_to_say","","-1","-1","244","300","56","","","","","","","","","","","","","","","","","","","","","","","","","","","",""
"1422","Confidence judgement (first response)","","confidence_first","html-keyboard-response","36","571706","0.0-6.0-2.8","32","prefer_not_to_say","","-1","-1","","","","right","88","50","88","true","55","","","","","","","","","","","","","","","","","","","","","",""
"null","fixation","null","fixation","html-keyboard-response","37","572207","0.0-6.0-0.9","32","prefer_not_to_say","","-1","-1","","","","","","","","","","","","","","","","","","","","","","","","","","","","","","",""
"null","[Dot display: left=300, right=245, diff=55]","null","numerosity","html-keyboard-response","38","572722","0.0-6.0-1.9","32","prefer_not_to_say","","-1","-1","300","245","55","","","","","","","","","","","","","","","","","","","","","","","","","","","",""
"1464","Confidence judgement (first response)","","confidence_first","html-keyboard-response","39","574188","0.0-6.0-2.9","32","prefer_not_to_say","","-1","-1","","","","right","95","50","95","false","59","","","","","","","","","","","","","","","","","","","","","",""
"null","fixation","null","fixation","html-keyboard-response","40","574511","0.0-6.0-0.10","32","prefer_not_to_say","","-1","-1","","","","","","","","","","","","","","","","","","","","","","","","","","","","","","",""
"null","[Dot display: left=241, right=300, diff=59]","null","numerosity","html-keyboard-response","41","575024","0.0-6.0-1.10","32","prefer_not_to_say","","-1","-1","241","300","59","","","","","","","","","","","","","","","","","","","","","","","","","","","",""
"1047","Confidence judgement (first response)","","confidence_first","html-keyboard-response","42","576071","0.0-6.0-2.10","32","prefer_not_to_say","","-1","-1","","","","right","92.5","50","92.5","true","58","","","","","","","","","","","","","","","","","","","","","",""
"null","fixation","null","fixation","html-keyboard-response","43","576455","0.0-6.0-0.11","32","prefer_not_to_say","","-1","-1","","","","","","","","","","","","","","","","","","","","","","","","","","","","","","",""
"null","[Dot display: left=300, right=242, diff=58]","null","numerosity","html-keyboard-response","44","576978","0.0-6.0-1.11","32","prefer_not_to_say","","-1","-1","300","242","58","","","","","","","","","","","","","","","","","","","","","","","","","","","",""
"1378","Confidence judgement (first response)","","confidence_first","html-keyboard-response","45","578359","0.0-6.0-2.11","32","prefer_not_to_say","","-1","-1","","","","right","88","50","88","false","62","","","","","","","","","","","","","","","","","","","","","",""
"null","fixation","null","fixation","html-keyboard-response","46","578756","0.0-6.0-0.12","32","prefer_not_to_say","","-1","-1","","","","","","","","","","","","","","","","","","","","","","","","","","","","","","",""
"null","[Dot display: left=238, right=300, diff=62]","null","numerosity","html-keyboard-response","47","579317","0.0-6.0-1.12","32","prefer_not_to_say","","-1","-1","238","300","62","","","","","","","","","","","","","","","","","","","","","","","","","","","",""
"1004","Confidence judgement (first response)","","confidence_first","html-keyboard-response","48","580322","0.0-6.0-2.12","32","prefer_not_to_say","","-1","-1","","","","right","92.75","50","92.75","true","61","","","","","","","","","","","","","","","","","","","","","",""
"null","fixation","null","fixation","html-keyboard-response","49","580826","0.0-6.0-0.13","32","prefer_not_to_say","","-1","-1","","","","","","","","","","","","","","","","","","","","","","","","","","","","","","",""
"null","[Dot display: left=239, right=300, diff=61]","null","numerosity","html-keyboard-response","50","581340","0.0-6.0-1.13","32","prefer_not_to_say","","-1","-1","239","300","61","","","","","","","","","","","","","","","","","","","","","","","","","","","",""
"1089","Confidence judgement (first response)","","confidence_first","html-keyboard-response","51","582431","0.0-6.0-2.13","32","prefer_not_to_say","","-1","-1","","","","right","86.75","50","86.75","true","60","","","","","","","","","","","","","","","","","","","","","",""
"null","fixation","null","fixation","html-keyboard-response","52","582920","0.0-6.0-0.14","32","prefer_not_to_say","","-1","-1","","","","","","","","","","","","","","","","","","","","","","","","","","","","","","",""
"null","[Dot display: left=240, right=300, diff=60]","null","numerosity","html-keyboard-response","53","583464","0.0-6.0-1.14","32","prefer_not_to_say","","-1","-1","240","300","60","","","","","","","","","","","","","","","","","","","","","","","","","","","",""
"1231","Confidence judgement (first response)","","confidence_first","html-keyboard-response","54","584697","0.0-6.0-2.14","32","prefer_not_to_say","","-1","-1","","","","right","91.75","50","91.75","true","60","","","","","","","","","","","","","","","","","","","","","",""
"null","fixation","null","fixation","html-keyboard-response","55","585050","0.0-6.0-0.15","32","prefer_not_to_say","","-1","-1","","","","","","","","","","","","","","","","","","","","","","","","","","","","","","",""
"null","[Dot display: left=300, right=240, diff=60]","null","numerosity","html-keyboard-response","56","585583","0.0-6.0-1.15","32","prefer_not_to_say","","-1","-1","300","240","60","","","","","","","","","","","","","","","","","","","","","","","","","","","",""
"1151","Confidence judgement (first response)","","confidence_first","html-keyboard-response","57","586736","0.0-6.0-2.15","32","prefer_not_to_say","","-1","-1","","","","right","84","50","84","false","63","","","","","","","","","","","","","","","","","","","","","",""
"null","fixation","null","fixation","html-keyboard-response","58","587169","0.0-6.0-0.16","32","prefer_not_to_say","","-1","-1","","","","","","","","","","","","","","","","","","","","","","","","","","","","","","",""
"null","[Dot display: left=237, right=300, diff=63]","null","numerosity","html-keyboard-response","59","587689","0.0-6.0-1.16","32","prefer_not_to_say","","-1","-1","237","300","63","","","","","","","","","","","","","","","","","","","","","","","","","","","",""
"940","Confidence judgement (first response)","","confidence_first","html-keyboard-response","60","588632","0.0-6.0-2.16","32","prefer_not_to_say","","-1","-1","","","","right","92.5","50","92.5","true","62","","","","","","","","","","","","","","","","","","","","","",""
"null","fixation","null","fixation","html-keyboard-response","61","588906","0.0-6.0-0.17","32","prefer_not_to_say","","-1","-1","","","","","","","","","","","","","","","","","","","","","","","","","","","","","","",""
"null","[Dot display: left=300, right=238, diff=62]","null","numerosity","html-keyboard-response","62","589417","0.0-6.0-1.17","32","prefer_not_to_say","","-1","-1","300","238","62","","","","","","","","","","","","","","","","","","","","","","","","","","","",""
"1636","Confidence judgement (first response)","","confidence_first","html-keyboard-response","63","591055","0.0-6.0-2.17","32","prefer_not_to_say","","-1","-1","","","","left","96.25","96.25","50","true","61","","","","","","","","","","","","","","","","","","","","","",""
"null","fixation","null","fixation","html-keyboard-response","64","591551","0.0-6.0-0.18","32","prefer_not_to_say","","-1","-1","","","","","","","","","","","","","","","","","","","","","","","","","","","","","","",""
"null","[Dot display: left=300, right=239, diff=61]","null","numerosity","html-keyboard-response","65","592086","0.0-6.0-1.18","32","prefer_not_to_say","","-1","-1","300","239","61","","","","","","","","","","","","","","","","","","","","","","","","","","","",""
"1126","Confidence judgement (first response)","","confidence_first","html-keyboard-response","66","593216","0.0-6.0-2.18","32","prefer_not_to_say","","-1","-1","","","","left","98","98","50","true","61","","","","","","","","","","","","","","","","","","","","","",""
"null","fixation","null","fixation","html-keyboard-response","67","593703","0.0-6.0-0.19","32","prefer_not_to_say","","-1","-1","","","","","","","","","","","","","","","","","","","","","","","","","","","","","","",""
"null","[Dot display: left=300, right=239, diff=61]","null","numerosity","html-keyboard-response","68","594234","0.0-6.0-1.19","32","prefer_not_to_say","","-1","-1","300","239","61","","","","","","","","","","","","","","","","","","","","","","","","","","","",""
"1096","Confidence judgement (first response)","","confidence_first","html-keyboard-response","69","595331","0.0-6.0-2.19","32","prefer_not_to_say","","-1","-1","","","","left","97.75","97.75","50","true","60","","","","","","","","","","","","","","","","","","","","","",""
"null","fixation","null","fixation","html-keyboard-response","70","595812","0.0-6.0-0.20","32","prefer_not_to_say","","-1","-1","","","","","","","","","","","","","","","","","","","","","","","","","","","","","","",""
"null","[Dot display: left=240, right=300, diff=60]","null","numerosity","html-keyboard-response","71","596359","0.0-6.0-1.20","32","prefer_not_to_say","","-1","-1","240","300","60","","","","","","","","","","","","","","","","","","","","","","","","","","","",""
"1033","Confidence judgement (first response)","","confidence_first","html-keyboard-response","72","597393","0.0-6.0-2.20","32","prefer_not_to_say","","-1","-1","","","","left","95","95","50","false","63","","","","","","","","","","","","","","","","","","","","","",""
"null","fixation","null","fixation","html-keyboard-response","73","597666","0.0-6.0-0.21","32","prefer_not_to_say","","-1","-1","","","","","","","","","","","","","","","","","","","","","","","","","","","","","","",""
"null","[Dot display: left=237, right=300, diff=63]","null","numerosity","html-keyboard-response","74","598179","0.0-6.0-1.21","32","prefer_not_to_say","","-1","-1","237","300","63","","","","","","","","","","","","","","","","","","","","","","","","","","","",""
"878","Confidence judgement (first response)","","confidence_first","html-keyboard-response","75","599059","0.0-6.0-2.21","32","prefer_not_to_say","","-1","-1","","","","left","92.5","92.5","50","false","66","","","","","","","","","","","","","","","","","","","","","",""
"null","fixation","null","fixation","html-keyboard-response","76","599566","0.0-6.0-0.22","32","prefer_not_to_say","","-1","-1","","","","","","","","","","","","","","","","","","","","","","","","","","","","","","",""
"null","[Dot display: left=300, right=234, diff=66]","null","numerosity","html-keyboard-response","77","600079","0.0-6.0-1.22","32","prefer_not_to_say","","-1","-1","300","234","66","","","","","","","","","","","","","","","","","","","","","","","","","","","",""
"1302","Confidence judgement (first response)","","confidence_first","html-keyboard-response","78","601382","0.0-6.0-2.22","32","prefer_not_to_say","","-1","-1","","","","left","98.5","98.5","50","true","65","","","","","","","","","","","","","","","","","","","","","",""
"null","fixation","null","fixation","html-keyboard-response","79","601811","0.0-6.0-0.23","32","prefer_not_to_say","","-1","-1","","","","","","","","","","","","","","","","","","","","","","","","","","","","","","",""
"null","[Dot display: left=235, right=300, diff=65]","null","numerosity","html-keyboard-response","80","602357","0.0-6.0-1.23","32","prefer_not_to_say","","-1","-1","235","300","65","","","","","","","","","","","","","","","","","","","","","","","","","","","",""
"1462","Confidence judgement (first response)","","confidence_first","html-keyboard-response","81","603821","0.0-6.0-2.23","32","prefer_not_to_say","","-1","-1","","","","right","92.25","50","92.25","true","64","","","","","","","","","","","","","","","","","","","","","",""
"null","fixation","null","fixation","html-keyboard-response","82","604243","0.0-6.0-0.24","32","prefer_not_to_say","","-1","-1","","","","","","","","","","","","","","","","","","","","","","","","","","","","","","",""
"null","[Dot display: left=236, right=300, diff=64]","null","numerosity","html-keyboard-response","83","604804","0.0-6.0-1.24","32","prefer_not_to_say","","-1","-1","236","300","64","","","","","","","","","","","","","","","","","","","","","","","","","","","",""
"1047","Confidence judgement (first response)","","confidence_first","html-keyboard-response","84","605853","0.0-6.0-2.24","32","prefer_not_to_say","","-1","-1","","","","right","88.25","50","88.25","true","64","","","","","","","","","","","","","","","","","","","","","",""
"9881","expInstruc","0","expInstructions","html-button-response","85","615737","0.0-7.0-0.0","32","prefer_not_to_say","","","","","","","","","","","","","","","","","","","","","","","","","","","","","","","","","",""
"7610","expInstruc","0","expInstructions","html-button-response","86","623350","0.0-7.0-0.1","32","prefer_not_to_say","","","","","","","","","","","","","","","","","","","","","","","","","","","","","","","","","",""
"4230","expInstruc","0","expInstructions","html-button-response","87","627581","0.0-7.0-0.2","32","prefer_not_to_say","","","","","","","","","","","","","","","","","","","","","","","","","","","","","","","","","",""
"6535","expInstruc","0","expInstructions","html-button-response","88","634120","0.0-7.0-0.3","32","prefer_not_to_say","","","","","","","","","","","","","","","","","","","","","","","","","","","","","","","","","",""
"3419","expInstruc","0","expInstructions","html-button-response","89","637539","0.0-7.0-0.4","32","prefer_not_to_say","","","","","","","","","","","","","","","","","","","","","","","","","","","","","","","","","",""
"1887","expInstruc","0","expInstructions","html-button-response","90","639430","0.0-7.0-0.5","32","prefer_not_to_say","","","","","","","","","","","","","","","","","","","","","","","","","","","","","","","","","",""
"2089","expInstruc","0","expInstructions","html-button-response","91","641522","0.0-7.0-0.6","32","prefer_not_to_say","","","","","","","","","","","","","","","","","","","","","","","","","","","","","","","","","",""
"5621","expInstruc","0","expInstructions","html-button-response","92","647147","0.0-7.0-0.7","32","prefer_not_to_say","","","","","","","","","","","","","","","","","","","","","","","","","","","","","","","","","",""
"4475","expInstruc","0","expInstructions","html-button-response","93","651625","0.0-7.0-0.8","32","prefer_not_to_say","","","","","","","","","","","","","","","","","","","","","","","","","","","","","","","","","",""
"3440","expInstruc","0","expInstructions","html-button-response","94","655068","0.0-7.0-0.9","32","prefer_not_to_say","","","","","","","","","","","","","","","","","","","","","","","","","","","","","","","","","",""
"926","expInstruc","0","expInstructions","html-button-response","95","655997","0.0-7.0-0.10","32","prefer_not_to_say","","","","","","","","","","","","","","","","","","","","","","","","","","","","","","","","","",""
"807","expInstruc","0","expInstructions","html-button-response","96","656806","0.0-7.0-0.11","32","prefer_not_to_say","","","","","","","","","","","","","","","","","","","","","","","","","","","","","","","","","",""
"2354","block message","0","block_message","html-button-response","97","659162","0.0-8.0","32","prefer_not_to_say","","","","","","","","","","","","","1","","","","","","","","","","","","","","","","","","","","",""
"null","fixation","null","fixation","html-keyboard-response","98","659632","0.0-9.0-0.0","32","prefer_not_to_say","","-1","-1","","","","","","","","","","","","","","","","","","","","","","","","","","","","","","",""
"null","[Dot display: left=300, right=236, diff=64]","null","numerosity","html-keyboard-response","99","660160","0.0-9.0-1.0","32","prefer_not_to_say","","-1","-1","300","236","64","","","","","","","","","","","","","","","","","","","","","","","","","","","",""
"1700","Confidence judgement (first response)","","confidence_first","html-keyboard-response","100","661863","0.0-9.0-2.0","32","prefer_not_to_say","","-1","-1","","","","left","57.25","57.25","50","true","63","","","","","","","","","","","","","","","","","","","","","",""
"921","forcedAdvice","0","forced_advice_display","html-button-response","101","662785","0.0-9.0-4.0-0.0","32","prefer_not_to_say","","-1","-1","","","","","","","","","","","","","","","","","","","","","","","","","","","","","","",""
"null","[advice: left]","null","show_advice","html-keyboard-response","102","663599","0.0-9.0-4.0-1.0","32","prefer_not_to_say","","-1","-1","","","","","","","","","","","left","","","","","","","","","","","","","","","","","","","",""
"1173","Confidence judgment (second response)","","confidence_second","html-keyboard-response","103","664775","0.0-9.0-6.0","32","prefer_not_to_say","","-1","-1","","","","left","93.25","93.25","50","true","63","","","","","","","","","","","","","","","","","","","","","",""
"null","consolidated-trial-data","null","consolidated-trial-data","consolidated-trial-data","104","664780","0.0-10.0","32","prefer_not_to_say","","","","","","","","","","","","","","","0","0","0","300","236","64","left","57.25","2","nan","left","left","93.25","true","","","","","",""
"null","fixation","null","fixation","html-keyboard-response","105","665280","0.0-11.0-0.0","32","prefer_not_to_say","","-1","-1","","","","","","","","","","","","","","","","","","","","","","","","","","","","","","",""
"null","[Dot display: left=300, right=237, diff=63]","null","numerosity","html-keyboard-response","106","665812","0.0-11.0-1.0","32","prefer_not_to_say","","-1","-1","300","237","63","","","","","","","","","","","","","","","","","","","","","","","","","","","",""
"1320","Confidence judgement (first response)","","confidence_first","html-keyboard-response","107","667134","0.0-11.0-2.0","32","prefer_not_to_say","","-1","-1","","","","left","90.5","90.5","50","true","62","","","","","","","","","","","","","","","","","","","","","",""
"986","noAdvice","0","no_advice_display","html-button-response","108","668125","0.0-11.0-5.0-0.0","32","prefer_not_to_say","","-1","-1","","","","","","","","","","","","","","","","","","","","","","","","","","","","","","",""
"null","blank","null","blank_screen","html-keyboard-response","109","668993","0.0-11.0-5.0-1.0","32","prefer_not_to_say","","-1","-1","","","","","","","","","","","","","","","","","","","","","","","","","","","","","","",""
"1028","Confidence judgment (second response)","","confidence_second","html-keyboard-response","110","670023","0.0-11.0-6.0","32","prefer_not_to_say","","-1","-1","","","","left","90.5","90.5","50","true","62","","","","","","","","","","","","","","","","","","","","","",""
"null","consolidated-trial-data","null","consolidated-trial-data","consolidated-trial-data","111","670028","0.0-12.0","32","prefer_not_to_say","","","","","","","","","","","","","","","0","1","1","300","237","63","left","90.5","3","nan","left","left","90.5","true","","","","","",""
"null","fixation","null","fixation","html-keyboard-response","112","670254","0.0-13.0-0.0","32","prefer_not_to_say","","-1","-1","","","","","","","","","","","","","","","","","","","","","","","","","","","","","","",""
"null","[Dot display: left=238, right=300, diff=62]","null","numerosity","html-keyboard-response","113","670764","0.0-13.0-1.0","32","prefer_not_to_say","","-1","-1","238","300","62","","","","","","","","","","","","","","","","","","","","","","","","","","","",""
"1401","Confidence judgement (first response)","","confidence_first","html-keyboard-response","114","672166","0.0-13.0-2.0","32","prefer_not_to_say","","-1","-1","","","","right","96.5","50","96.5","true","61","","","","","","","","","","","","","","","","","","","","","",""
"1208","[advice choice Y,N]","1","advice_choice","html-button-response","115","673377","0.0-13.0-3.0-0.0","32","prefer_not_to_say","","-1","-1","","","","","","","","","","","","","","","","","","","","","","","","","","","","","","",""
"null","blank","null","blank_screen","html-keyboard-response","116","674208","0.0-13.0-3.0-2.0-0.0","32","prefer_not_to_say","","-1","-1","","","","","","","","","","","","","","","","","","","","","","","","","","","","","","",""
"1002","Confidence judgment (second response)","","confidence_second","html-keyboard-response","117","675212","0.0-13.0-6.0","32","prefer_not_to_say","","-1","-1","","","","right","96.5","50","96.5","true","61","","","","","","","","","","","","","","","","","","","","","",""
"null","consolidated-trial-data","null","consolidated-trial-data","consolidated-trial-data","118","675213","0.0-14.0","32","prefer_not_to_say","","","","","","","","","","","","","","","0","2","2","238","300","62","right","96.5","1","no","left","right","96.5","false","","","","","",""
"null","fixation","null","fixation","html-keyboard-response","119","675580","0.0-15.0-0.0","32","prefer_not_to_say","","-1","-1","","","","","","","","","","","","","","","","","","","","","","","","","","","","","","",""
"null","[Dot display: left=239, right=300, diff=61]","null","numerosity","html-keyboard-response","120","676097","0.0-15.0-1.0","32","prefer_not_to_say","","-1","-1","239","300","61","","","","","","","","","","","","","","","","","","","","","","","","","","","",""
"1791","Confidence judgement (first response)","","confidence_first","html-keyboard-response","121","677890","0.0-15.0-2.0","32","prefer_not_to_say","","-1","-1","","","","right","87","50","87","true","60","","","","","","","","","","","","","","","","","","","","","",""
"1166","[advice choice Y,N]","0","advice_choice","html-button-response","122","679059","0.0-15.0-3.0-0.0","32","prefer_not_to_say","","-1","-1","","","","","","","","","","","","","","","","","","","","","","","","","","","","","","",""
"null","[advice: left]","null","show_advice","html-keyboard-response","123","679875","0.0-15.0-3.0-1.0-0.0","32","prefer_not_to_say","","-1","-1","","","","","","","","","","","left","","","","","","","","","","","","","","","","","","","",""
"1373","Confidence judgment (second response)","","confidence_second","html-keyboard-response","124","681251","0.0-15.0-6.0","32","prefer_not_to_say","","-1","-1","","","","left","77.5","77.5","50","false","62","","","","","","","","","","","","","","","","","","","","","",""
"null","consolidated-trial-data","null","consolidated-trial-data","consolidated-trial-data","125","681255","0.0-16.0","32","prefer_not_to_say","","","","","","","","","","","","","","","0","3","3","239","300","61","right","87","1","yes","left","left","77.5","false","","","","","",""
"39540","block message","0","block_message","html-button-response","126","720799","0.0-17.0","32","prefer_not_to_say","","","","","","","","","","","","","1","","","","","","","","","","","","","","","","","","","","",""
"null","fixation","null","fixation","html-keyboard-response","127","721180","0.0-18.0-0.0","32","prefer_not_to_say","","-1","-1","","","","","","","","","","","","","","","","","","","","","","","","","","","","","","",""
"null","[Dot display: left=238, right=300, diff=62]","null","numerosity","html-keyboard-response","128","721696","0.0-18.0-1.0","32","prefer_not_to_say","","-1","-1","238","300","62","","","","","","","","","","","","","","","","","","","","","","","","","","","",""
"1412","Confidence judgement (first response)","","confidence_first","html-keyboard-response","129","723109","0.0-18.0-2.0","32","prefer_not_to_say","","-1","-1","","","","right","92","50","92","true","62","","","","","","","","","","","","","","","","","","","","","",""
"1026","[advice choice Y,N]","0","advice_choice","html-button-response","130","724137","0.0-18.0-3.0-0.0","32","prefer_not_to_say","","-1","-1","","","","","","","","","","","","","","","","","","","","","","","","","","","","","","",""
"null","[advice: left]","null","show_advice","html-keyboard-response","131","724951","0.0-18.0-3.0-1.0-0.0","32","prefer_not_to_say","","-1","-1","","","","","","","","","","","left","","","","","","","","","","","","","","","","","","","",""
"1348","Confidence judgment (second response)","","confidence_second","html-keyboard-response","132","726300","0.0-18.0-6.0","32","prefer_not_to_say","","-1","-1","","","","right","60.25","50","60.25","true","61","","","","","","","","","","","","","","","","","","","","","",""
"null","consolidated-trial-data","null","consolidated-trial-data","consolidated-trial-data","133","726301","0.0-19.0","32","prefer_not_to_say","","","","","","","","","","","","","","","0","4","4","238","300","62","right","92","1","yes","left","right","60.25","false","","","","","",""
"null","fixation","null","fixation","html-keyboard-response","134","726752","0.0-20.0-0.0","32","prefer_not_to_say","","-1","-1","","","","","","","","","","","","","","","","","","","","","","","","","","","","","","",""
"null","[Dot display: left=239, right=300, diff=61]","null","numerosity","html-keyboard-response","135","727266","0.0-20.0-1.0","32","prefer_not_to_say","","-1","-1","239","300","61","","","","","","","","","","","","","","","","","","","","","","","","","","","",""
"1519","Confidence judgement (first response)","","confidence_first","html-keyboard-response","136","728787","0.0-20.0-2.0","32","prefer_not_to_say","","-1","-1","","","","right","92","50","92","true","61","","","","","","","","","","","","","","","","","","","","","",""
"926","[advice choice Y,N]","0","advice_choice","html-button-response","137","729716","0.0-20.0-3.0-0.0","32","prefer_not_to_say","","-1","-1","","","","","","","","","","","","","","","","","","","","","","","","","","","","","","",""
"null","[advice: right]","null","show_advice","html-keyboard-response","138","730532","0.0-20.0-3.0-1.0-0.0","32","prefer_not_to_say","","-1","-1","","","","","","","","","","","right","","","","","","","","","","","","","","","","","","","",""
"1502","Confidence judgment (second response)","","confidence_second","html-keyboard-response","139","732033","0.0-20.0-6.0","32","prefer_not_to_say","","-1","-1","","","","right","98.25","50","98.25","true","60","","","","","","","","","","","","","","","","","","","","","",""
"null","consolidated-trial-data","null","consolidated-trial-data","consolidated-trial-data","140","732036","0.0-21.0","32","prefer_not_to_say","","","","","","","","","","","","","","","0","5","5","239","300","61","right","92","1","yes","right","right","98.25","true","","","","","",""
"null","fixation","null","fixation","html-keyboard-response","141","732477","0.0-22.0-0.0","32","prefer_not_to_say","","-1","-1","","","","","","","","","","","","","","","","","","","","","","","","","","","","","","",""
"null","[Dot display: left=240, right=300, diff=60]","null","numerosity","html-keyboard-response","142","732992","0.0-22.0-1.0","32","prefer_not_to_say","","-1","-1","240","300","60","","","","","","","","","","","","","","","","","","","","","","","","","","","",""
"1211","Confidence judgement (first response)","","confidence_first","html-keyboard-response","143","734203","0.0-22.0-2.0","32","prefer_not_to_say","","-1","-1","","","","right","95.25","50","95.25","true","60","","","","","","","","","","","","","","","","","","","","","",""
"785","forcedAdvice","0","forced_advice_display","html-button-response","144","734990","0.0-22.0-4.0-0.0","32","prefer_not_to_say","","-1","-1","","","","","","","","","","","","","","","","","","","","","","","","","","","","","","",""
"null","[advice: right]","null","show_advice","html-keyboard-response","145","735805","0.0-22.0-4.0-1.0","32","prefer_not_to_say","","-1","-1","","","","","","","","","","","right","","","","","","","","","","","","","","","","","","","",""
"1285","Confidence judgment (second response)","","confidence_second","html-keyboard-response","146","737092","0.0-22.0-6.0","32","prefer_not_to_say","","-1","-1","","","","right","98.25","50","98.25","true","60","","","","","","","","","","","","","","","","","","","","","",""
"null","consolidated-trial-data","null","consolidated-trial-data","consolidated-trial-data","147","737095","0.0-23.0","32","prefer_not_to_say","","","","","","","","","","","","","","","0","6","6","240","300","60","right","95.25","2","yes","right","right","98.25","true","","","","","",""
"null","fixation","null","fixation","html-keyboard-response","148","737378","0.0-24.0-0.0","32","prefer_not_to_say","","-1","-1","","","","","","","","","","","","","","","","","","","","","","","","","","","","","","",""
"null","[Dot display: left=240, right=300, diff=60]","null","numerosity","html-keyboard-response","149","737901","0.0-24.0-1.0","32","prefer_not_to_say","","-1","-1","240","300","60","","","","","","","","","","","","","","","","","","","","","","","","","","","",""
"1512","Confidence judgement (first response)","","confidence_first","html-keyboard-response","150","739415","0.0-24.0-2.0","32","prefer_not_to_say","","-1","-1","","","","right","97.25","50","97.25","true","59","","","","","","","","","","","","","","","","","","","","","",""
"934","forcedAdvice","0","forced_advice_display","html-button-response","151","740350","0.0-24.0-4.0-0.0","32","prefer_not_to_say","","-1","-1","","","","","","","","","","","","","","","","","","","","","","","","","","","","","","",""
"null","[advice: right]","null","show_advice","html-keyboard-response","152","741151","0.0-24.0-4.0-1.0","32","prefer_not_to_say","","-1","-1","","","","","","","","","","","right","","","","","","","","","","","","","","","","","","","",""
"1372","Confidence judgment (second response)","","confidence_second","html-keyboard-response","153","742525","0.0-24.0-6.0","32","prefer_not_to_say","","-1","-1","","","","right","99.5","50","99.5","true","59","","","","","","","","","","","","","","","","","","","","","",""
"null","consolidated-trial-data","null","consolidated-trial-data","consolidated-trial-data","154","742526","0.0-25.0","32","prefer_not_to_say","","","","","","","","","","","","","","","0","7","7","240","300","60","right","97.25","2","yes","right","right","99.5","true","","","","","",""
"null","fixation","null","fixation","html-keyboard-response","155","743006","0.0-26.0-0.0","32","prefer_not_to_say","","-1","-1","","","","","","","","","","","","","","","","","","","","","","","","","","","","","","",""
"null","[Dot display: left=300, right=241, diff=59]","null","numerosity","html-keyboard-response","156","743525","0.0-26.0-1.0","32","prefer_not_to_say","","-1","-1","300","241","59","","","","","","","","","","","","","","","","","","","","","","","","","","","",""
"1367","Confidence judgement (first response)","","confidence_first","html-keyboard-response","157","744894","0.0-26.0-2.0","32","prefer_not_to_say","","-1","-1","","","","left","95.5","95.5","50","true","59","","","","","","","","","","","","","","","","","","","","","",""
"925","[advice choice Y,N]","0","advice_choice","html-button-response","158","745822","0.0-26.0-3.0-0.0","32","prefer_not_to_say","","-1","-1","","","","","","","","","","","","","","","","","","","","","","","","","","","","","","",""
"null","[advice: left]","null","show_advice","html-keyboard-response","159","746637","0.0-26.0-3.0-1.0-0.0","32","prefer_not_to_say","","-1","-1","","","","","","","","","","","left","","","","","","","","","","","","","","","","","","","",""
"1675","Confidence judgment (second response)","","confidence_second","html-keyboard-response","160","748314","0.0-26.0-6.0","32","prefer_not_to_say","","-1","-1","","","","left","99.75","99.75","50","true","58","","","","","","","","","","","","","","","","","","","","","",""
"null","consolidated-trial-data","null","consolidated-trial-data","consolidated-trial-data","161","748315","0.0-27.0","32","prefer_not_to_say","","","","","","","","","","","","","","","0","8","8","300","241","59","left","95.5","1","yes","left","left","99.75","true","","","","","",""
"13895","block message","0","block_message","html-button-response","162","762212","0.0-28.0","32","prefer_not_to_say","","","","","","","","","","","","","1","","","","","","","","","","","","","","","","","","","","",""
"null","fixation","null","fixation","html-keyboard-response","163","762417","0.0-29.0-0.0","32","prefer_not_to_say","","-1","-1","","","","","","","","","","","","","","","","","","","","","","","","","","","","","","",""
"null","[Dot display: left=300, right=242, diff=58]","null","numerosity","html-keyboard-response","164","762930","0.0-29.0-1.0","32","prefer_not_to_say","","-1","-1","300","242","58","","","","","","","","","","","","","","","","","","","","","","","","","","","",""
"1227","Confidence judgement (first response)","","confidence_first","html-keyboard-response","165","764158","0.0-29.0-2.0","32","prefer_not_to_say","","-1","-1","","","","left","92.25","92.25","50","true","58","","","","","","","","","","","","","","","","","","","","","",""
"1210","noAdvice","0","no_advice_display","html-button-response","166","765368","0.0-29.0-5.0-0.0","32","prefer_not_to_say","","-1","-1","","","","","","","","","","","","","","","","","","","","","","","","","","","","","","",""
"null","blank","null","blank_screen","html-keyboard-response","167","766178","0.0-29.0-5.0-1.0","32","prefer_not_to_say","","-1","-1","","","","","","","","","","","","","","","","","","","","","","","","","","","","","","",""
"39157","Confidence judgment (second response)","","confidence_second","html-keyboard-response","168","805338","0.0-29.0-6.0","32","prefer_not_to_say","","-1","-1","","","","left","92.25","92.25","50","true","58","","","","","","","","","","","","","","","","","","","","","",""
"null","consolidated-trial-data","null","consolidated-trial-data","consolidated-trial-data","169","805342","0.0-30.0","32","prefer_not_to_say","","","","","","","","","","","","","","","0","9","9","300","242","58","left","92.25","3","yes","left","left","92.25","true","","","","","",""
"null","fixation","null","fixation","html-keyboard-response","170","805852","0.0-31.0-0.0","32","prefer_not_to_say","","-1","-1","","","","","","","","","","","","","","","","","","","","","","","","","","","","","","",""
"null","[Dot display: left=242, right=300, diff=58]","null","numerosity","html-keyboard-response","171","806368","0.0-31.0-1.0","32","prefer_not_to_say","","-1","-1","242","300","58","","","","","","","","","","","","","","","","","","","","","","","","","","","",""
"2595","Confidence judgement (first response)","","confidence_first","html-keyboard-response","172","808966","0.0-31.0-2.0","32","prefer_not_to_say","","-1","-1","","","","left","97.5","97.5","50","false","59","","","","","","","","","","","","","","","","","","","","","",""
"1224","noAdvice","0","no_advice_display","html-button-response","173","810193","0.0-31.0-5.0-0.0","32","prefer_not_to_say","","-1","-1","","","","","","","","","","","","","","","","","","","","","","","","","","","","","","",""
"null","blank","null","blank_screen","html-keyboard-response","174","810996","0.0-31.0-5.0-1.0","32","prefer_not_to_say","","-1","-1","","","","","","","","","","","","","","","","","","","","","","","","","","","","","","",""
"1028","Confidence judgment (second response)","","confidence_second","html-keyboard-response","175","812026","0.0-31.0-6.0","32","prefer_not_to_say","","-1","-1","","","","left","97.5","97.5","50","false","60","","","","","","","","","","","","","","","","","","","","","",""
"null","consolidated-trial-data","null","consolidated-trial-data","consolidated-trial-data","176","812028","0.0-32.0","32","prefer_not_to_say","","","","","","","","","","","","","","","0","10","10","242","300","58","left","97.5","3","yes","left","left","97.5","false","","","","","",""
"null","fixation","null","fixation","html-keyboard-response","177","812331","0.0-33.0-0.0","32","prefer_not_to_say","","-1","-1","","","","","","","","","","","","","","","","","","","","","","","","","","","","","","",""
"null","[Dot display: left=300, right=240, diff=60]","null","numerosity","html-keyboard-response","178","812851","0.0-33.0-1.0","32","prefer_not_to_say","","-1","-1","300","240","60","","","","","","","","","","","","","","","","","","","","","","","","","","","",""
"1496","Confidence judgement (first response)","","confidence_first","html-keyboard-response","179","814350","0.0-33.0-2.0","32","prefer_not_to_say","","-1","-1","","","","left","95.75","95.75","50","true","60","","","","","","","","","","","","","","","","","","","","","",""
"943","noAdvice","0","no_advice_display","html-button-response","180","815295","0.0-33.0-5.0-0.0","32","prefer_not_to_say","","-1","-1","","","","","","","","","","","","","","","","","","","","","","","","","","","","","","",""
"null","blank","null","blank_screen","html-keyboard-response","181","816114","0.0-33.0-5.0-1.0","32","prefer_not_to_say","","-1","-1","","","","","","","","","","","","","","","","","","","","","","","","","","","","","","",""
"994","Confidence judgment (second response)","","confidence_second","html-keyboard-response","182","817112","0.0-33.0-6.0","32","prefer_not_to_say","","-1","-1","","","","left","95.75","95.75","50","true","60","","","","","","","","","","","","","","","","","","","","","",""
"null","consolidated-trial-data","null","consolidated-trial-data","consolidated-trial-data","183","817116","0.0-34.0","32","prefer_not_to_say","","","","","","","","","","","","","","","0","11","11","300","240","60","left","95.75","3","yes","left","left","95.75","true","","","","","",""
"2108","attncheck","2","attncheck","html-button-response","184","819226","0.0-35.0","32","prefer_not_to_say","","","","","","","","","","","","","","","","","","","","","","","","","","","","","true","Next","","","",""
"null","fixation","null","fixation","html-keyboard-response","185","819580","0.0-36.0-0.0","32","prefer_not_to_say","","-1","-1","","","","","","","","","","","","","","","","","","","","","","","","","","","","","","",""
"null","[Dot display: left=240, right=300, diff=60]","null","numerosity","html-keyboard-response","186","820111","0.0-36.0-1.0","32","prefer_not_to_say","","-1","-1","240","300","60","","","","","","","","","","","","","","","","","","","","","","","","","","","",""
"1481","Confidence judgement (first response)","","confidence_first","html-keyboard-response","187","821595","0.0-36.0-2.0","32","prefer_not_to_say","","-1","-1","","","","right","96.25","50","96.25","true","59","","","","","","","","","","","","","","","","","","","","","",""
"1381","forcedAdvice","0","forced_advice_display","html-button-response","188","822979","0.0-36.0-4.0-0.0","32","prefer_not_to_say","","-1","-1","","","","","","","","","","","","","","","","","","","","","","","","","","","","","","",""
"null","[advice: right]","null","show_advice","html-keyboard-response","189","823782","0.0-36.0-4.0-1.0","32","prefer_not_to_say","","-1","-1","","","","","","","","","","","right","","","","","","","","","","","","","","","","","","","",""
"1344","Confidence judgment (second response)","","confidence_second","html-keyboard-response","190","825128","0.0-36.0-6.0","32","prefer_not_to_say","","-1","-1","","","","right","97.5","50","97.5","true","59","","","","","","","","","","","","","","","","","","","","","",""
"null","consolidated-trial-data","null","consolidated-trial-data","consolidated-trial-data","191","825132","0.0-37.0","32","prefer_not_to_say","","","","","","","","","","","","","","","0","12","12","240","300","60","right","96.25","2","yes","right","right","97.5","true","","","","","",""
"2236","attncheck","1","attncheck","html-button-response","192","827371","0.0-38.0","32","prefer_not_to_say","","","","","","","","","","","","","","","","","","","","","","","","","","","","","true","Continue","","","",""
"null","fixation","null","fixation","html-keyboard-response","193","827820","0.0-39.0-0.0","32","prefer_not_to_say","","-1","-1","","","","","","","","","","","","","","","","","","","","","","","","","","","","","","",""
"null","[Dot display: left=300, right=241, diff=59]","null","numerosity","html-keyboard-response","194","828335","0.0-39.0-1.0","32","prefer_not_to_say","","-1","-1","300","241","59","","","","","","","","","","","","","","","","","","","","","","","","","","","",""
"16668","Confidence judgement (first response)","","confidence_first","html-keyboard-response","195","845004","0.0-39.0-2.0","32","prefer_not_to_say","","-1","-1","","","","left","98","98","50","true","59","","","","","","","","","","","","","","","","","","","","","",""
"838","noAdvice","0","no_advice_display","html-button-response","196","845843","0.0-39.0-5.0-0.0","32","prefer_not_to_say","","-1","-1","","","","","","","","","","","","","","","","","","","","","","","","","","","","","","",""
"null","blank","null","blank_screen","html-keyboard-response","197","846657","0.0-39.0-5.0-1.0","32","prefer_not_to_say","","-1","-1","","","","","","","","","","","","","","","","","","","","","","","","","","","","","","",""
"1215","Confidence judgment (second response)","","confidence_second","html-keyboard-response","198","847876","0.0-39.0-6.0","32","prefer_not_to_say","","-1","-1","","","","left","98","98","50","true","58","","","","","","","","","","","","","","","","","","","","","",""
"null","consolidated-trial-data","null","consolidated-trial-data","consolidated-trial-data","199","847880","0.0-40.0","32","prefer_not_to_say","","","","","","","","","","","","","","","0","13","13","300","241","59","left","98","3","yes","right","left","98","false","","","","","",""
"null","fixation","null","fixation","html-keyboard-response","200","848124","0.0-41.0-0.0","32","prefer_not_to_say","","-1","-1","","","","","","","","","","","","","","","","","","","","","","","","","","","","","","",""
"null","[Dot display: left=300, right=242, diff=58]","null","numerosity","html-keyboard-response","201","848669","0.0-41.0-1.0","32","prefer_not_to_say","","-1","-1","300","242","58","","","","","","","","","","","","","","","","","","","","","","","","","","","",""
"1363","Confidence judgement (first response)","","confidence_first","html-keyboard-response","202","850036","0.0-41.0-2.0","32","prefer_not_to_say","","-1","-1","","","","left","96.5","96.5","50","true","58","","","","","","","","","","","","","","","","","","","","","",""
"2164","forcedAdvice","0","forced_advice_display","html-button-response","203","852202","0.0-41.0-4.0-0.0","32","prefer_not_to_say","","-1","-1","","","","","","","","","","","","","","","","","","","","","","","","","","","","","","",""
"null","[advice: left]","null","show_advice","html-keyboard-response","204","853081","0.0-41.0-4.0-1.0","32","prefer_not_to_say","","-1","-1","","","","","","","","","","","left","","","","","","","","","","","","","","","","","","","",""
"1136","Confidence judgment (second response)","","confidence_second","html-keyboard-response","205","854220","0.0-41.0-6.0","32","prefer_not_to_say","","-1","-1","","","","left","96","96","50","true","58","","","","","","","","","","","","","","","","","","","","","",""
"null","consolidated-trial-data","null","consolidated-trial-data","consolidated-trial-data","206","854221","0.0-42.0","32","prefer_not_to_say","","","","","","","","","","","","","","","0","14","14","300","242","58","left","96.5","2","yes","left","left","96","true","","","","","",""
"31946","block message","0","block_message","html-button-response","207","886169","0.0-43.0","32","prefer_not_to_say","","","","","","","","","","","","","2","","","","","","","","","","","","","","","","","","","","",""
"null","fixation","null","fixation","html-keyboard-response","208","886467","0.0-44.0-0.0","32","prefer_not_to_say","","-1","-1","","","","","","","","","","","","","","","","","","","","","","","","","","","","","","",""
"null","[Dot display: left=242, right=300, diff=58]","null","numerosity","html-keyboard-response","209","886983","0.0-44.0-1.0","32","prefer_not_to_say","","-1","-1","242","300","58","","","","","","","","","","","","","","","","","","","","","","","","","","","",""
"1906","Confidence judgement (first response)","","confidence_first","html-keyboard-response","210","888892","0.0-44.0-2.0","32","prefer_not_to_say","","-1","-1","","","","right","91.75","50","91.75","true","58","","","","","","","","","","","","","","","","","","","","","",""
"1092","forcedAdvice","0","forced_advice_display","html-button-response","211","889987","0.0-44.0-4.0-0.0","32","prefer_not_to_say","","-1","-1","","","","","","","","","","","","","","","","","","","","","","","","","","","","","","",""
"null","[advice: left]","null","show_advice","html-keyboard-response","212","890794","0.0-44.0-4.0-1.0","32","prefer_not_to_say","","-1","-1","","","","","","","","","","","left","","","","","","","","","","","","","","","","","","","",""
"1389","Confidence judgment (second response)","","confidence_second","html-keyboard-response","213","892185","0.0-44.0-6.0","32","prefer_not_to_say","","-1","-1","","","","left","96","96","50","false","59","","","","","","","","","","","","","","","","","","","","","",""
"null","consolidated-trial-data","null","consolidated-trial-data","consolidated-trial-data","214","892189","0.0-45.0","32","prefer_not_to_say","","","","","","","","","","","","","","","1","0","15","242","300","58","right","91.75","2","yes","left","left","96","false","","","","","",""
"null","fixation","null","fixation","html-keyboard-response","215","892535","0.0-46.0-0.0","32","prefer_not_to_say","","-1","-1","","","","","","","","","","","","","","","","","","","","","","","","","","","","","","",""
"null","[Dot display: left=300, right=241, diff=59]","null","numerosity","html-keyboard-response","216","893049","0.0-46.0-1.0","32","prefer_not_to_say","","-1","-1","300","241","59","","","","","","","","","","","","","","","","","","","","","","","","","","","",""
"1359","Confidence judgement (first response)","","confidence_first","html-keyboard-response","217","894411","0.0-46.0-2.0","32","prefer_not_to_say","","-1","-1","","","","left","97","97","50","true","58","","","","","","","","","","","","","","","","","","","","","",""
"763","noAdvice","0","no_advice_display","html-button-response","218","895175","0.0-46.0-5.0-0.0","32","prefer_not_to_say","","-1","-1","","","","","","","","","","","","","","","","","","","","","","","","","","","","","","",""
"null","blank","null","blank_screen","html-keyboard-response","219","895989","0.0-46.0-5.0-1.0","32","prefer_not_to_say","","-1","-1","","","","","","","","","","","","","","","","","","","","","","","","","","","","","","",""
"1024","Confidence judgment (second response)","","confidence_second","html-keyboard-response","220","897016","0.0-46.0-6.0","32","prefer_not_to_say","","-1","-1","","","","left","97","97","50","true","58","","","","","","","","","","","","","","","","","","","","","",""
"null","consolidated-trial-data","null","consolidated-trial-data","consolidated-trial-data","221","897021","0.0-47.0","32","prefer_not_to_say","","","","","","","","","","","","","","","1","1","16","300","241","59","left","97","3","yes","left","left","97","true","","","","","",""
"1995","attncheck","2","attncheck","html-button-response","222","899018","0.0-48.0","32","prefer_not_to_say","","","","","","","","","","","","","","","","","","","","","","","","","","","","","true","Next","","","",""
"null","fixation","null","fixation","html-keyboard-response","223","899346","0.0-49.0-0.0","32","prefer_not_to_say","","-1","-1","","","","","","","","","","","","","","","","","","","","","","","","","","","","","","",""
"null","[Dot display: left=300, right=242, diff=58]","null","numerosity","html-keyboard-response","224","899861","0.0-49.0-1.0","32","prefer_not_to_say","","-1","-1","300","242","58","","","","","","","","","","","","","","","","","","","","","","","","","","","",""
"1612","Confidence judgement (first response)","","confidence_first","html-keyboard-response","225","901475","0.0-49.0-2.0","32","prefer_not_to_say","","-1","-1","","","","left","62","62","50","true","58","","","","","","","","","","","","","","","","","","","","","",""
"1308","[advice choice Y,N]","0","advice_choice","html-button-response","226","902785","0.0-49.0-3.0-0.0","32","prefer_not_to_say","","-1","-1","","","","","","","","","","","","","","","","","","","","","","","","","","","","","","",""
"null","[advice: left]","null","show_advice","html-keyboard-response","227","903595","0.0-49.0-3.0-1.0-0.0","32","prefer_not_to_say","","-1","-1","","","","","","","","","","","left","","","","","","","","","","","","","","","","","","","",""
"1142","Confidence judgment (second response)","","confidence_second","html-keyboard-response","228","904740","0.0-49.0-6.0","32","prefer_not_to_say","","-1","-1","","","","left","96.75","96.75","50","true","58","","","","","","","","","","","","","","","","","","","","","",""
"null","consolidated-trial-data","null","consolidated-trial-data","consolidated-trial-data","229","904746","0.0-50.0","32","prefer_not_to_say","","","","","","","","","","","","","","","1","2","17","300","242","58","left","62","1","yes","left","left","96.75","true","","","","","",""
"null","fixation","null","fixation","html-keyboard-response","230","905128","0.0-51.0-0.0","32","prefer_not_to_say","","-1","-1","","","","","","","","","","","","","","","","","","","","","","","","","","","","","","",""
"null","[Dot display: left=242, right=300, diff=58]","null","numerosity","html-keyboard-response","231","905672","0.0-51.0-1.0","32","prefer_not_to_say","","-1","-1","242","300","58","","","","","","","","","","","","","","","","","","","","","","","","","","","",""
"1713","Confidence judgement (first response)","","confidence_first","html-keyboard-response","232","907388","0.0-51.0-2.0","32","prefer_not_to_say","","-1","-1","","","","right","95","50","95","true","57","","","","","","","","","","","","","","","","","","","","","",""
"993","[advice choice Y,N]","0","advice_choice","html-button-response","233","908384","0.0-51.0-3.0-0.0","32","prefer_not_to_say","","-1","-1","","","","","","","","","","","","","","","","","","","","","","","","","","","","","","",""
"null","[advice: left]","null","show_advice","html-keyboard-response","234","909188","0.0-51.0-3.0-1.0-0.0","32","prefer_not_to_say","","-1","-1","","","","","","","","","","","left","","","","","","","","","","","","","","","","","","","",""
"1349","Confidence judgment (second response)","","confidence_second","html-keyboard-response","235","910538","0.0-51.0-6.0","32","prefer_not_to_say","","-1","-1","","","","left","97.25","97.25","50","false","59","","","","","","","","","","","","","","","","","","","","","",""
"null","consolidated-trial-data","null","consolidated-trial-data","consolidated-trial-data","236","910540","0.0-52.0","32","prefer_not_to_say","","","","","","","","","","","","","","","1","3","18","242","300","58","right","95","1","yes","left","left","97.25","false","","","","","",""
"34450","block message","0","block_message","html-button-response","237","944993","0.0-53.0","32","prefer_not_to_say","","","","","","","","","","","","","2","","","","","","","","","","","","","","","","","","","","",""
"null","fixation","null","fixation","html-keyboard-response","238","945349","0.0-54.0-0.0","32","prefer_not_to_say","","-1","-1","","","","","","","","","","","","","","","","","","","","","","","","","","","","","","",""
"null","[Dot display: left=241, right=300, diff=59]","null","numerosity","html-keyboard-response","239","945865","0.0-54.0-1.0","32","prefer_not_to_say","","-1","-1","241","300","59","","","","","","","","","","","","","","","","","","","","","","","","","","","",""
"1382","Confidence judgement (first response)","","confidence_first","html-keyboard-response","240","947250","0.0-54.0-2.0","32","prefer_not_to_say","","-1","-1","","","","right","95.25","50","95.25","true","58","","","","","","","","","","","","","","","","","","","","","",""
"988","[advice choice Y,N]","0","advice_choice","html-button-response","241","948242","0.0-54.0-3.0-0.0","32","prefer_not_to_say","","-1","-1","","","","","","","","","","","","","","","","","","","","","","","","","","","","","","",""
"null","[advice: right]","null","show_advice","html-keyboard-response","242","949058","0.0-54.0-3.0-1.0-0.0","32","prefer_not_to_say","","-1","-1","","","","","","","","","","","right","","","","","","","","","","","","","","","","","","","",""
"1031","Confidence judgment (second response)","","confidence_second","html-keyboard-response","243","950094","0.0-54.0-6.0","32","prefer_not_to_say","","-1","-1","","","","right","95","50","95","true","58","","","","","","","","","","","","","","","","","","","","","",""
"null","consolidated-trial-data","null","consolidated-trial-data","consolidated-trial-data","244","950097","0.0-55.0","32","prefer_not_to_say","","","","","","","","","","","","","","","1","4","19","241","300","59","right","95.25","1","yes","right","right","95","true","","","","","",""
"null","fixation","null","fixation","html-keyboard-response","245","950582","0.0-56.0-0.0","32","prefer_not_to_say","","-1","-1","","","","","","","","","","","","","","","","","","","","","","","","","","","","","","",""
"null","[Dot display: left=242, right=300, diff=58]","null","numerosity","html-keyboard-response","246","951096","0.0-56.0-1.0","32","prefer_not_to_say","","-1","-1","242","300","58","","","","","","","","","","","","","","","","","","","","","","","","","","","",""
"1140","Confidence judgement (first response)","","confidence_first","html-keyboard-response","247","952239","0.0-56.0-2.0","32","prefer_not_to_say","","-1","-1","","","","right","94.25","50","94.25","true","58","","","","","","","","","","","","","","","","","","","","","",""
"850","[advice choice Y,N]","1","advice_choice","html-button-response","248","953092","0.0-56.0-3.0-0.0","32","prefer_not_to_say","","-1","-1","","","","","","","","","","","","","","","","","","","","","","","","","","","","","","",""
"null","blank","null","blank_screen","html-keyboard-response","249","953992","0.0-56.0-3.0-2.0-0.0","32","prefer_not_to_say","","-1","-1","","","","","","","","","","","","","","","","","","","","","","","","","","","","","","",""
"852","Confidence judgment (second response)","","confidence_second","html-keyboard-response","250","954847","0.0-56.0-6.0","32","prefer_not_to_say","","-1","-1","","","","right","94.25","50","94.25","true","58","","","","","","","","","","","","","","","","","","","","","",""
"null","consolidated-trial-data","null","consolidated-trial-data","consolidated-trial-data","251","954853","0.0-57.0","32","prefer_not_to_say","","","","","","","","","","","","","","","1","5","20","242","300","58","right","94.25","1","no","right","right","94.25","true","","","","","",""
"null","fixation","null","fixation","html-keyboard-response","252","955255","0.0-58.0-0.0","32","prefer_not_to_say","","-1","-1","","","","","","","","","","","","","","","","","","","","","","","","","","","","","","",""
"null","[Dot display: left=242, right=300, diff=58]","null","numerosity","html-keyboard-response","253","955815","0.0-58.0-1.0","32","prefer_not_to_say","","-1","-1","242","300","58","","","","","","","","","","","","","","","","","","","","","","","","","","","",""
"1708","Confidence judgement (first response)","","confidence_first","html-keyboard-response","254","957524","0.0-58.0-2.0","32","prefer_not_to_say","","-1","-1","","","","right","98","50","98","true","57","","","","","","","","","","","","","","","","","","","","","",""
"877","forcedAdvice","0","forced_advice_display","html-button-response","255","958403","0.0-58.0-4.0-0.0","32","prefer_not_to_say","","-1","-1","","","","","","","","","","","","","","","","","","","","","","","","","","","","","","",""
"null","[advice: right]","null","show_advice","html-keyboard-response","256","959208","0.0-58.0-4.0-1.0","32","prefer_not_to_say","","-1","-1","","","","","","","","","","","right","","","","","","","","","","","","","","","","","","","",""
"760","Confidence judgment (second response)","","confidence_second","html-keyboard-response","257","959969","0.0-58.0-6.0","32","prefer_not_to_say","","-1","-1","","","","right","98","50","98","true","57","","","","","","","","","","","","","","","","","","","","","",""
"null","consolidated-trial-data","null","consolidated-trial-data","consolidated-trial-data","258","959974","0.0-59.0","32","prefer_not_to_say","","","","","","","","","","","","","","","1","6","21","242","300","58","right","98","2","no","right","right","98","true","","","","","",""
"null","fixation","null","fixation","html-keyboard-response","259","960204","0.0-60.0-0.0","32","prefer_not_to_say","","-1","-1","","","","","","","","","","","","","","","","","","","","","","","","","","","","","","",""
"null","[Dot display: left=300, right=243, diff=57]","null","numerosity","html-keyboard-response","260","960719","0.0-60.0-1.0","32","prefer_not_to_say","","-1","-1","300","243","57","","","","","","","","","","","","","","","","","","","","","","","","","","","",""
"2427","Confidence judgement (first response)","","confidence_first","html-keyboard-response","261","963149","0.0-60.0-2.0","32","prefer_not_to_say","","-1","-1","","","","left","96.25","96.25","50","true","57","","","","","","","","","","","","","","","","","","","","","",""
"933","forcedAdvice","0","forced_advice_display","html-button-response","262","964086","0.0-60.0-4.0-0.0","32","prefer_not_to_say","","-1","-1","","","","","","","","","","","","","","","","","","","","","","","","","","","","","","",""
"null","[advice: left]","null","show_advice","html-keyboard-response","263","964889","0.0-60.0-4.0-1.0","32","prefer_not_to_say","","-1","-1","","","","","","","","","","","left","","","","","","","","","","","","","","","","","","","",""
"1573","Confidence judgment (second response)","","confidence_second","html-keyboard-response","264","966464","0.0-60.0-6.0","32","prefer_not_to_say","","-1","-1","","","","left","95.75","95.75","50","true","57","","","","","","","","","","","","","","","","","","","","","",""
"null","consolidated-trial-data","null","consolidated-trial-data","consolidated-trial-data","265","966469","0.0-61.0","32","prefer_not_to_say","","","","","","","","","","","","","","","1","7","22","300","243","57","left","96.25","2","no","left","left","95.75","true","","","","","",""
"null","fixation","null","fixation","html-keyboard-response","266","966926","0.0-62.0-0.0","32","prefer_not_to_say","","-1","-1","","","","","","","","","","","","","","","","","","","","","","","","","","","","","","",""
"null","[Dot display: left=300, right=243, diff=57]","null","numerosity","html-keyboard-response","267","967440","0.0-62.0-1.0","32","prefer_not_to_say","","-1","-1","300","243","57","","","","","","","","","","","","","","","","","","","","","","","","","","","",""
"1343","Confidence judgement (first response)","","confidence_first","html-keyboard-response","268","968783","0.0-62.0-2.0","32","prefer_not_to_say","","-1","-1","","","","left","96.25","96.25","50","true","57","","","","","","","","","","","","","","","","","","","","","",""
"899","[advice choice Y,N]","1","advice_choice","html-button-response","269","969684","0.0-62.0-3.0-0.0","32","prefer_not_to_say","","-1","-1","","","","","","","","","","","","","","","","","","","","","","","","","","","","","","",""
"null","blank","null","blank_screen","html-keyboard-response","270","970512","0.0-62.0-3.0-2.0-0.0","32","prefer_not_to_say","","-1","-1","","","","","","","","","","","","","","","","","","","","","","","","","","","","","","",""
"473","Confidence judgment (second response)","","confidence_second","html-keyboard-response","271","970987","0.0-62.0-6.0","32","prefer_not_to_say","","-1","-1","","","","left","96.25","96.25","50","true","56","","","","","","","","","","","","","","","","","","","","","",""
"null","consolidated-trial-data","null","consolidated-trial-data","consolidated-trial-data","272","970992","0.0-63.0","32","prefer_not_to_say","","","","","","","","","","","","","","","1","8","23","300","243","57","left","96.25","1","no","left","left","96.25","true","","","","","",""
"1452","block message","0","block_message","html-button-response","273","972448","0.0-64.0","32","prefer_not_to_say","","","","","","","","","","","","","2","","","","","","","","","","","","","","","","","","","","",""
"null","fixation","null","fixation","html-keyboard-response","274","972708","0.0-65.0-0.0","32","prefer_not_to_say","","-1","-1","","","","","","","","","","","","","","","","","","","","","","","","","","","","","","",""
"null","[Dot display: left=244, right=300, diff=56]","null","numerosity","html-keyboard-response","275","973223","0.0-65.0-1.0","32","prefer_not_to_say","","-1","-1","244","300","56","","","","","","","","","","","","","","","","","","","","","","","","","","","",""
"13248","Confidence judgement (first response)","","confidence_first","html-keyboard-response","276","986473","0.0-65.0-2.0","32","prefer_not_to_say","","-1","-1","","","","left","93","93","50","false","57","","","","","","","","","","","","","","","","","","","","","",""
"1054","noAdvice","0","no_advice_display","html-button-response","277","987531","0.0-65.0-5.0-0.0","32","prefer_not_to_say","","-1","-1","","","","","","","","","","","","","","","","","","","","","","","","","","","","","","",""
"null","blank","null","blank_screen","html-keyboard-response","278","988376","0.0-65.0-5.0-1.0","32","prefer_not_to_say","","-1","-1","","","","","","","","","","","","","","","","","","","","","","","","","","","","","","",""
"882","Confidence judgment (second response)","","confidence_second","html-keyboard-response","279","989259","0.0-65.0-6.0","32","prefer_not_to_say","","-1","-1","","","","left","93","93","50","false","58","","","","","","","","","","","","","","","","","","","","","",""
"null","consolidated-trial-data","null","consolidated-trial-data","consolidated-trial-data","280","989261","0.0-66.0","32","prefer_not_to_say","","","","","","","","","","","","","","","1","9","24","244","300","56","left","93","3","no","left","left","93","false","","","","","",""
"null","fixation","null","fixation","html-keyboard-response","281","989730","0.0-67.0-0.0","32","prefer_not_to_say","","-1","-1","","","","","","","","","","","","","","","","","","","","","","","","","","","","","","",""
"null","[Dot display: left=242, right=300, diff=58]","null","numerosity","html-keyboard-response","282","990245","0.0-67.0-1.0","32","prefer_not_to_say","","-1","-1","242","300","58","","","","","","","","","","","","","","","","","","","","","","","","","","","",""
"1394","Confidence judgement (first response)","","confidence_first","html-keyboard-response","283","991642","0.0-67.0-2.0","32","prefer_not_to_say","","-1","-1","","","","right","96","50","96","true","58","","","","","","","","","","","","","","","","","","","","","",""
"906","noAdvice","0","no_advice_display","html-button-response","284","992550","0.0-67.0-5.0-0.0","32","prefer_not_to_say","","-1","-1","","","","","","","","","","","","","","","","","","","","","","","","","","","","","","",""
"null","blank","null","blank_screen","html-keyboard-response","285","993361","0.0-67.0-5.0-1.0","32","prefer_not_to_say","","-1","-1","","","","","","","","","","","","","","","","","","","","","","","","","","","","","","",""
"603","Confidence judgment (second response)","","confidence_second","html-keyboard-response","286","993967","0.0-67.0-6.0","32","prefer_not_to_say","","-1","-1","","","","right","96","50","96","true","58","","","","","","","","","","","","","","","","","","","","","",""
"null","consolidated-trial-data","null","consolidated-trial-data","consolidated-trial-data","287","993972","0.0-68.0","32","prefer_not_to_say","","","","","","","","","","","","","","","1","10","25","242","300","58","right","96","3","no","left","right","96","false","","","","","",""
"null","fixation","null","fixation","html-keyboard-response","288","994331","0.0-69.0-0.0","32","prefer_not_to_say","","-1","-1","","","","","","","","","","","","","","","","","","","","","","","","","","","","","","",""
"null","[Dot display: left=242, right=300, diff=58]","null","numerosity","html-keyboard-response","289","994843","0.0-69.0-1.0","32","prefer_not_to_say","","-1","-1","242","300","58","","","","","","","","","","","","","","","","","","","","","","","","","","","",""
"1804","Confidence judgement (first response)","","confidence_first","html-keyboard-response","290","996647","0.0-69.0-2.0","32","prefer_not_to_say","","-1","-1","","","","right","98.75","50","98.75","true","57","","","","","","","","","","","","","","","","","","","","","",""
"985","noAdvice","0","no_advice_display","html-button-response","291","997632","0.0-69.0-5.0-0.0","32","prefer_not_to_say","","-1","-1","","","","","","","","","","","","","","","","","","","","","","","","","","","","","","",""
"null","blank","null","blank_screen","html-keyboard-response","292","998443","0.0-69.0-5.0-1.0","32","prefer_not_to_say","","-1","-1","","","","","","","","","","","","","","","","","","","","","","","","","","","","","","",""
"119467","Confidence judgment (second response)","","confidence_second","html-keyboard-response","293","1117912","0.0-69.0-6.0","32","prefer_not_to_say","","-1","-1","","","","right","100","50","100","true","57","","","","","","","","","","","","","","","","","","","","","",""
"null","consolidated-trial-data","null","consolidated-trial-data","consolidated-trial-data","294","1117914","0.0-70.0","32","prefer_not_to_say","","","","","","","","","","","","","","","1","11","26","242","300","58","right","98.75","3","no","left","right","100","false","","","","","",""
"null","fixation","null","fixation","html-keyboard-response","295","1118425","0.0-71.0-0.0","32","prefer_not_to_say","","-1","-1","","","","","","","","","","","","","","","","","","","","","","","","","","","","","","",""
"null","[Dot display: left=243, right=300, diff=57]","null","numerosity","html-keyboard-response","296","1118950","0.0-71.0-1.0","32","prefer_not_to_say","","-1","-1","243","300","57","","","","","","","","","","","","","","","","","","","","","","","","","","","",""
"2048","Confidence judgement (first response)","","confidence_first","html-keyboard-response","297","1121000","0.0-71.0-2.0","32","prefer_not_to_say","","-1","-1","","","","right","99.25","50","99.25","true","57","","","","","","","","","","","","","","","","","","","","","",""
"835","forcedAdvice","0","forced_advice_display","html-button-response","298","1121840","0.0-71.0-4.0-0.0","32","prefer_not_to_say","","-1","-1","","","","","","","","","","","","","","","","","","","","","","","","","","","","","","",""
"null","[advice: right]","null","show_advice","html-keyboard-response","299","1122645","0.0-71.0-4.0-1.0","32","prefer_not_to_say","","-1","-1","","","","","","","","","","","right","","","","","","","","","","","","","","","","","","","",""
"2022","Confidence judgment (second response)","","confidence_second","html-keyboard-response","300","1124668","0.0-71.0-6.0","32","prefer_not_to_say","","-1","-1","","","","right","99.25","50","99.25","true","57","","","","","","","","","","","","","","","","","","","","","",""
"null","consolidated-trial-data","null","consolidated-trial-data","consolidated-trial-data","301","1124674","0.0-72.0","32","prefer_not_to_say","","","","","","","","","","","","","","","1","12","27","243","300","57","right","99.25","2","no","right","right","99.25","true","","","","","",""
"1378","attncheck","1","attncheck","html-button-response","302","1126055","0.0-73.0","32","prefer_not_to_say","","","","","","","","","","","","","","","","","","","","","","","","","","","","","true","Continue","","","",""
"null","fixation","null","fixation","html-keyboard-response","303","1126534","0.0-74.0-0.0","32","prefer_not_to_say","","-1","-1","","","","","","","","","","","","","","","","","","","","","","","","","","","","","","",""
"null","[Dot display: left=243, right=300, diff=57]","null","numerosity","html-keyboard-response","304","1127048","0.0-74.0-1.0","32","prefer_not_to_say","","-1","-1","243","300","57","","","","","","","","","","","","","","","","","","","","","","","","","","","",""
"5449","Confidence judgement (first response)","","confidence_first","html-keyboard-response","305","1132499","0.0-74.0-2.0","32","prefer_not_to_say","","-1","-1","","","","left","100","100","50","false","58","","","","","","","","","","","","","","","","","","","","","",""
"1121","noAdvice","0","no_advice_display","html-button-response","306","1133623","0.0-74.0-5.0-0.0","32","prefer_not_to_say","","-1","-1","","","","","","","","","","","","","","","","","","","","","","","","","","","","","","",""
"null","blank","null","blank_screen","html-keyboard-response","307","1134434","0.0-74.0-5.0-1.0","32","prefer_not_to_say","","-1","-1","","","","","","","","","","","","","","","","","","","","","","","","","","","","","","",""
"16947","Confidence judgment (second response)","","confidence_second","html-keyboard-response","308","1151384","0.0-74.0-6.0","32","prefer_not_to_say","","-1","-1","","","","left","50.25","50.25","50","false","58","","","","","","","","","","","","","","","","","","","","","",""
"null","consolidated-trial-data","null","consolidated-trial-data","consolidated-trial-data","309","1151389","0.0-75.0","32","prefer_not_to_say","","","","","","","","","","","","","","","1","13","28","243","300","57","left","100","3","no","right","left","50.25","true","","","","","",""
"null","fixation","null","fixation","html-keyboard-response","310","1151785","0.0-76.0-0.0","32","prefer_not_to_say","","-1","-1","","","","","","","","","","","","","","","","","","","","","","","","","","","","","","",""
"null","[Dot display: left=242, right=300, diff=58]","null","numerosity","html-keyboard-response","311","1152299","0.0-76.0-1.0","32","prefer_not_to_say","","-1","-1","242","300","58","","","","","","","","","","","","","","","","","","","","","","","","","","","",""
"3116","Confidence judgement (first response)","","confidence_first","html-keyboard-response","312","1155417","0.0-76.0-2.0","32","prefer_not_to_say","","-1","-1","","","","right","50","50","50","true","58","","","","","","","","","","","","","","","","","","","","","",""
"863","forcedAdvice","0","forced_advice_display","html-button-response","313","1156283","0.0-76.0-4.0-0.0","32","prefer_not_to_say","","-1","-1","","","","","","","","","","","","","","","","","","","","","","","","","","","","","","",""
"null","[advice: right]","null","show_advice","html-keyboard-response","314","1157098","0.0-76.0-4.0-1.0","32","prefer_not_to_say","","-1","-1","","","","","","","","","","","right","","","","","","","","","","","","","","","","","","","",""
"3124","Confidence judgment (second response)","","confidence_second","html-keyboard-response","315","1160226","0.0-76.0-6.0","32","prefer_not_to_say","","-1","-1","","","","right","51.25","50","51.25","true","58","","","","","","","","","","","","","","","","","","","","","",""
"null","consolidated-trial-data","null","consolidated-trial-data","consolidated-trial-data","316","1160231","0.0-77.0","32","prefer_not_to_say","","","","","","","","","","","","","","","1","14","29","242","300","58","right","50","2","no","right","right","51.25","true","","","","","",""
"1161","block message","0","block_message","html-button-response","317","1161396","0.0-78.0","32","prefer_not_to_say","","","","","","","","","","","","","3","","","","","","","","","","","","","","","","","","","","",""
"null","fixation","null","fixation","html-keyboard-response","318","1161868","0.0-79.0-0.0","32","prefer_not_to_say","","-1","-1","","","","","","","","","","","","","","","","","","","","","","","","","","","","","","",""
"null","[Dot display: left=300, right=242, diff=58]","null","numerosity","html-keyboard-response","319","1162384","0.0-79.0-1.0","32","prefer_not_to_say","","-1","-1","300","242","58","","","","","","","","","","","","","","","","","","","","","","","","","","","",""
"3178","Confidence judgement (first response)","","confidence_first","html-keyboard-response","320","1165565","0.0-79.0-2.0","32","prefer_not_to_say","","-1","-1","","","","left","100","100","50","true","58","","","","","","","","","","","","","","","","","","","","","",""
"1037","forcedAdvice","0","forced_advice_display","html-button-response","321","1166606","0.0-79.0-4.0-0.0","32","prefer_not_to_say","","-1","-1","","","","","","","","","","","","","","","","","","","","","","","","","","","","","","",""
"null","[advice: left]","null","show_advice","html-keyboard-response","322","1167417","0.0-79.0-4.0-1.0","32","prefer_not_to_say","","-1","-1","","","","","","","","","","","left","","","","","","","","","","","","","","","","","","","",""
"57110","Confidence judgment (second response)","","confidence_second","html-keyboard-response","323","1224531","0.0-79.0-6.0","32","prefer_not_to_say","","-1","-1","","","","right","65.75","50","65.75","false","59","","","","","","","","","","","","","","","","","","","","","",""
"null","consolidated-trial-data","null","consolidated-trial-data","consolidated-trial-data","324","1224536","0.0-80.0","32","prefer_not_to_say","","","","","","","","","","","","","","","2","0","30","300","242","58","left","100","2","no","left","right","65.75","true","","","","","",""
"null","fixation","null","fixation","html-keyboard-response","325","1225005","0.0-81.0-0.0","32","prefer_not_to_say","","-1","-1","","","","","","","","","","","","","","","","","","","","","","","","","","","","","","",""
"null","[Dot display: left=300, right=241, diff=59]","null","numerosity","html-keyboard-response","326","1225521","0.0-81.0-1.0","32","prefer_not_to_say","","-1","-1","300","241","59","","","","","","","","","","","","","","","","","","","","","","","","","","","",""
"1093","Confidence judgement (first response)","","confidence_first","html-keyboard-response","327","1226618","0.0-81.0-2.0","32","prefer_not_to_say","","-1","-1","","","","left","96.75","96.75","50","true","58","","","","","","","","","","","","","","","","","","","","","",""
"743","noAdvice","0","no_advice_display","html-button-response","328","1227364","0.0-81.0-5.0-0.0","32","prefer_not_to_say","","-1","-1","","","","","","","","","","","","","","","","","","","","","","","","","","","","","","",""
"null","blank","null","blank_screen","html-keyboard-response","329","1228170","0.0-81.0-5.0-1.0","32","prefer_not_to_say","","-1","-1","","","","","","","","","","","","","","","","","","","","","","","","","","","","","","",""
"720","Confidence judgment (second response)","","confidence_second","html-keyboard-response","330","1228895","0.0-81.0-6.0","32","prefer_not_to_say","","-1","-1","","","","left","96.75","96.75","50","true","58","","","","","","","","","","","","","","","","","","","","","",""
"null","consolidated-trial-data","null","consolidated-trial-data","consolidated-trial-data","331","1228900","0.0-82.0","32","prefer_not_to_say","","","","","","","","","","","","","","","2","1","31","300","241","59","left","96.75","3","no","left","left","96.75","true","","","","","",""
"null","fixation","null","fixation","html-keyboard-response","332","1229387","0.0-83.0-0.0","32","prefer_not_to_say","","-1","-1","","","","","","","","","","","","","","","","","","","","","","","","","","","","","","",""
"null","[Dot display: left=242, right=300, diff=58]","null","numerosity","html-keyboard-response","333","1229898","0.0-83.0-1.0","32","prefer_not_to_say","","-1","-1","242","300","58","","","","","","","","","","","","","","","","","","","","","","","","","","","",""
"1185","Confidence judgement (first response)","","confidence_first","html-keyboard-response","334","1231085","0.0-83.0-2.0","32","prefer_not_to_say","","-1","-1","","","","right","70.25","50","70.25","true","58","","","","","","","","","","","","","","","","","","","","","",""
"964","[advice choice Y,N]","1","advice_choice","html-button-response","335","1232052","0.0-83.0-3.0-0.0","32","prefer_not_to_say","","-1","-1","","","","","","","","","","","","","","","","","","","","","","","","","","","","","","",""
"null","blank","null","blank_screen","html-keyboard-response","336","1232861","0.0-83.0-3.0-2.0-0.0","32","prefer_not_to_say","","-1","-1","","","","","","","","","","","","","","","","","","","","","","","","","","","","","","",""
"616","Confidence judgment (second response)","","confidence_second","html-keyboard-response","337","1233480","0.0-83.0-6.0","32","prefer_not_to_say","","-1","-1","","","","right","70.25","50","70.25","true","58","","","","","","","","","","","","","","","","","","","","","",""
"null","consolidated-trial-data","null","consolidated-trial-data","consolidated-trial-data","338","1233481","0.0-84.0","32","prefer_not_to_say","","","","","","","","","","","","","","","2","2","32","242","300","58","right","70.25","1","no","left","right","70.25","false","","","","","",""
"null","fixation","null","fixation","html-keyboard-response","339","1233793","0.0-85.0-0.0","32","prefer_not_to_say","","-1","-1","","","","","","","","","","","","","","","","","","","","","","","","","","","","","","",""
"null","[Dot display: left=242, right=300, diff=58]","null","numerosity","html-keyboard-response","340","1234340","0.0-85.0-1.0","32","prefer_not_to_say","","-1","-1","242","300","58","","","","","","","","","","","","","","","","","","","","","","","","","","","",""
"1252","Confidence judgement (first response)","","confidence_first","html-keyboard-response","341","1235593","0.0-85.0-2.0","32","prefer_not_to_say","","-1","-1","","","","right","93.75","50","93.75","true","58","","","","","","","","","","","","","","","","","","","","","",""
"978","[advice choice Y,N]","1","advice_choice","html-button-response","342","1236574","0.0-85.0-3.0-0.0","32","prefer_not_to_say","","-1","-1","","","","","","","","","","","","","","","","","","","","","","","","","","","","","","",""
"null","blank","null","blank_screen","html-keyboard-response","343","1237419","0.0-85.0-3.0-2.0-0.0","32","prefer_not_to_say","","-1","-1","","","","","","","","","","","","","","","","","","","","","","","","","","","","","","",""
"1028","Confidence judgment (second response)","","confidence_second","html-keyboard-response","344","1238450","0.0-85.0-6.0","32","prefer_not_to_say","","-1","-1","","","","right","93.75","50","93.75","true","58","","","","","","","","","","","","","","","","","","","","","",""
"null","consolidated-trial-data","null","consolidated-trial-data","consolidated-trial-data","345","1238455","0.0-86.0","32","prefer_not_to_say","","","","","","","","","","","","","","","2","3","33","242","300","58","right","93.75","1","no","left","right","93.75","false","","","","","",""
"1634","block message","0","block_message","html-button-response","346","1240092","0.0-87.0","32","prefer_not_to_say","","","","","","","","","","","","","3","","","","","","","","","","","","","","","","","","","","",""
"null","fixation","null","fixation","html-keyboard-response","347","1240344","0.0-88.0-0.0","32","prefer_not_to_say","","-1","-1","","","","","","","","","","","","","","","","","","","","","","","","","","","","","","",""
"null","[Dot display: left=242, right=300, diff=58]","null","numerosity","html-keyboard-response","348","1240859","0.0-88.0-1.0","32","prefer_not_to_say","","-1","-1","242","300","58","","","","","","","","","","","","","","","","","","","","","","","","","","","",""
"1621","Confidence judgement (first response)","","confidence_first","html-keyboard-response","349","1242480","0.0-88.0-2.0","32","prefer_not_to_say","","-1","-1","","","","right","95.75","50","95.75","true","57","","","","","","","","","","","","","","","","","","","","","",""
"940","[advice choice Y,N]","1","advice_choice","html-button-response","350","1243422","0.0-88.0-3.0-0.0","32","prefer_not_to_say","","-1","-1","","","","","","","","","","","","","","","","","","","","","","","","","","","","","","",""
"null","blank","null","blank_screen","html-keyboard-response","351","1244230","0.0-88.0-3.0-2.0-0.0","32","prefer_not_to_say","","-1","-1","","","","","","","","","","","","","","","","","","","","","","","","","","","","","","",""
"773","Confidence judgment (second response)","","confidence_second","html-keyboard-response","352","1245004","0.0-88.0-6.0","32","prefer_not_to_say","","-1","-1","","","","right","95.75","50","95.75","true","57","","","","","","","","","","","","","","","","","","","","","",""
"null","consolidated-trial-data","null","consolidated-trial-data","consolidated-trial-data","353","1245009","0.0-89.0","32","prefer_not_to_say","","","","","","","","","","","","","","","2","4","34","242","300","58","right","95.75","1","no","left","right","95.75","false","","","","","",""
"null","fixation","null","fixation","html-keyboard-response","354","1245241","0.0-90.0-0.0","32","prefer_not_to_say","","-1","-1","","","","","","","","","","","","","","","","","","","","","","","","","","","","","","",""
"null","[Dot display: left=243, right=300, diff=57]","null","numerosity","html-keyboard-response","355","1245756","0.0-90.0-1.0","32","prefer_not_to_say","","-1","-1","243","300","57","","","","","","","","","","","","","","","","","","","","","","","","","","","",""
"1668","Confidence judgement (first response)","","confidence_first","html-keyboard-response","356","1247427","0.0-90.0-2.0","32","prefer_not_to_say","","-1","-1","","","","right","64.5","50","64.5","true","57","","","","","","","","","","","","","","","","","","","","","",""
"858","[advice choice Y,N]","1","advice_choice","html-button-response","357","1248288","0.0-90.0-3.0-0.0","32","prefer_not_to_say","","-1","-1","","","","","","","","","","","","","","","","","","","","","","","","","","","","","","",""
"null","blank","null","blank_screen","html-keyboard-response","358","1249099","0.0-90.0-3.0-2.0-0.0","32","prefer_not_to_say","","-1","-1","","","","","","","","","","","","","","","","","","","","","","","","","","","","","","",""
"935","Confidence judgment (second response)","","confidence_second","html-keyboard-response","359","1250038","0.0-90.0-6.0","32","prefer_not_to_say","","-1","-1","","","","left","69.5","69.5","50","false","58","","","","","","","","","","","","","","","","","","","","","",""
"null","consolidated-trial-data","null","consolidated-trial-data","consolidated-trial-data","360","1250042","0.0-91.0","32","prefer_not_to_say","","","","","","","","","","","","","","","2","5","35","243","300","57","right","64.5","1","no","left","left","69.5","false","","","","","",""
"null","fixation","null","fixation","html-keyboard-response","361","1250371","0.0-92.0-0.0","32","prefer_not_to_say","","-1","-1","","","","","","","","","","","","","","","","","","","","","","","","","","","","","","",""
"null","[Dot display: left=242, right=300, diff=58]","null","numerosity","html-keyboard-response","362","1250887","0.0-92.0-1.0","32","prefer_not_to_say","","-1","-1","242","300","58","","","","","","","","","","","","","","","","","","","","","","","","","","","",""
"1705","Confidence judgement (first response)","","confidence_first","html-keyboard-response","363","1252593","0.0-92.0-2.0","32","prefer_not_to_say","","-1","-1","","","","right","99.75","50","99.75","true","58","","","","","","","","","","","","","","","","","","","","","",""
"854","forcedAdvice","0","forced_advice_display","html-button-response","364","1253448","0.0-92.0-4.0-0.0","32","prefer_not_to_say","","-1","-1","","","","","","","","","","","","","","","","","","","","","","","","","","","","","","",""
"null","[advice: right]","null","show_advice","html-keyboard-response","365","1254260","0.0-92.0-4.0-1.0","32","prefer_not_to_say","","-1","-1","","","","","","","","","","","right","","","","","","","","","","","","","","","","","","","",""
"1621","Confidence judgment (second response)","","confidence_second","html-keyboard-response","366","1255884","0.0-92.0-6.0","32","prefer_not_to_say","","-1","-1","","","","right","61.25","50","61.25","true","57","","","","","","","","","","","","","","","","","","","","","",""
"null","consolidated-trial-data","null","consolidated-trial-data","consolidated-trial-data","367","1255887","0.0-93.0","32","prefer_not_to_say","","","","","","","","","","","","","","","2","6","36","242","300","58","right","99.75","2","no","right","right","61.25","true","","","","","",""
"null","fixation","null","fixation","html-keyboard-response","368","1256349","0.0-94.0-0.0","32","prefer_not_to_say","","-1","-1","","","","","","","","","","","","","","","","","","","","","","","","","","","","","","",""
"null","[Dot display: left=300, right=243, diff=57]","null","numerosity","html-keyboard-response","369","1256864","0.0-94.0-1.0","32","prefer_not_to_say","","-1","-1","300","243","57","","","","","","","","","","","","","","","","","","","","","","","","","","","",""
"1998","Confidence judgement (first response)","","confidence_first","html-keyboard-response","370","1258864","0.0-94.0-2.0","32","prefer_not_to_say","","-1","-1","","","","left","100","100","50","true","57","","","","","","","","","","","","","","","","","","","","","",""
"972","forcedAdvice","0","forced_advice_display","html-button-response","371","1259838","0.0-94.0-4.0-0.0","32","prefer_not_to_say","","-1","-1","","","","","","","","","","","","","","","","","","","","","","","","","","","","","","",""
"null","[advice: left]","null","show_advice","html-keyboard-response","372","1260643","0.0-94.0-4.0-1.0","32","prefer_not_to_say","","-1","-1","","","","","","","","","","","left","","","","","","","","","","","","","","","","","","","",""
"2298","Confidence judgment (second response)","","confidence_second","html-keyboard-response","373","1262945","0.0-94.0-6.0","32","prefer_not_to_say","","-1","-1","","","","right","99.25","50","99.25","false","58","","","","","","","","","","","","","","","","","","","","","",""
"null","consolidated-trial-data","null","consolidated-trial-data","consolidated-trial-data","374","1262949","0.0-95.0","32","prefer_not_to_say","","","","","","","","","","","","","","","2","7","37","300","243","57","left","100","2","no","left","right","99.25","true","","","","","",""
"null","fixation","null","fixation","html-keyboard-response","375","1263268","0.0-96.0-0.0","32","prefer_not_to_say","","-1","-1","","","","","","","","","","","","","","","","","","","","","","","","","","","","","","",""
"null","[Dot display: left=242, right=300, diff=58]","null","numerosity","html-keyboard-response","376","1263785","0.0-96.0-1.0","32","prefer_not_to_say","","-1","-1","242","300","58","","","","","","","","","","","","","","","","","","","","","","","","","","","",""
"18135","Confidence judgement (first response)","","confidence_first","html-keyboard-response","377","1281922","0.0-96.0-2.0","32","prefer_not_to_say","","-1","-1","","","","left","100","100","50","false","59","","","","","","","","","","","","","","","","","","","","","",""
"853","[advice choice Y,N]","1","advice_choice","html-button-response","378","1282776","0.0-96.0-3.0-0.0","32","prefer_not_to_say","","-1","-1","","","","","","","","","","","","","","","","","","","","","","","","","","","","","","",""
"null","blank","null","blank_screen","html-keyboard-response","379","1283602","0.0-96.0-3.0-2.0-0.0","32","prefer_not_to_say","","-1","-1","","","","","","","","","","","","","","","","","","","","","","","","","","","","","","",""
"1892","Confidence judgment (second response)","","confidence_second","html-keyboard-response","380","1285497","0.0-96.0-6.0","32","prefer_not_to_say","","-1","-1","","","","left","55.5","55.5","50","false","59","","","","","","","","","","","","","","","","","","","","","",""
"null","consolidated-trial-data","null","consolidated-trial-data","consolidated-trial-data","381","1285503","0.0-97.0","32","prefer_not_to_say","","","","","","","","","","","","","","","2","8","38","242","300","58","left","100","1","no","left","left","55.5","false","","","","","",""
"1319","block message","0","block_message","html-button-response","382","1286826","0.0-98.0","32","prefer_not_to_say","","","","","","","","","","","","","3","","","","","","","","","","","","","","","","","","","","",""
"1578","attncheck","0","attncheck","html-button-response","383","1288406","0.0-99.0","32","prefer_not_to_say","","","","","","","","","","","","","","","","","","","","","","","","","","","","","true","Stop","","","",""
"null","fixation","null","fixation","html-keyboard-response","384","1288768","0.0-100.0-0.0","32","prefer_not_to_say","","-1","-1","","","","","","","","","","","","","","","","","","","","","","","","","","","","","","",""
"null","[Dot display: left=300, right=241, diff=59]","null","numerosity","html-keyboard-response","385","1289286","0.0-100.0-1.0","32","prefer_not_to_say","","-1","-1","300","241","59","","","","","","","","","","","","","","","","","","","","","","","","","","","",""
"1454","Confidence judgement (first response)","","confidence_first","html-keyboard-response","386","1290741","0.0-100.0-2.0","32","prefer_not_to_say","","-1","-1","","","","left","80.75","80.75","50","true","59","","","","","","","","","","","","","","","","","","","","","",""
