"success","task","trial_type","trial_index","time_elapsed","internal_node_id","rt","stimulus","response","pixels_per_unit","itrial","iblock","leftDots","rightDots","difference","selected_side","confidence_value","left_confidence","right_confidence","correct","threshold","block_num","advice_direction","block","trial","trialid","dotsLeft","dotsRight","dotsDiff","selectedSide_first","confidence_first","correct_1","rt_1","adviceCond","adviceChoice","adviceDir","selectedSide_second","confidence_second","adviceCorrect","correct_2","rt_2","attention_check_correct","target_button","top_prompt","bottom_prompt","top_response","bottom_response","question_order"
"true","fullscreen_enter","fullscreen","0","35138","0.0-0.0","","","","","","","","","","","","","","","","","","","","","","","","","","","","","","","","","","","","","","","","","",""
"","welcome","html-button-response","1","41415","0.0-1.0","6275","welcome_msg","0","","","","","","","","","","","","","","","","","","","","","","","","","","","","","","","","","","","","","","",""
"","PISdoc","html-button-response","2","107211","0.0-2.0","65793","PISdoc","0","","","","","","","","","","","","","","","","","","","","","","","","","","","","","","","","","","","","","","",""
"","demographics","survey-html-form","3","112730","0.0-3.0","5516","","{""age"":""39"",""gender"":""female"",""id"":""8449""}","","","","","","","","","","","","","","","","","","","","","","","","","","","","","","","","","","","","","","",""
"","dass10","survey-likert","4","158099","0.0-4.0","45366","","{""felt_panic"":0,""no_initiative"":3,""felt_blue"":1,""was_intolerant"":2,""nothing_forward"":1,""felt_scared"":0,""over_react"":0,""felt_worry"":2,""no_relax"":0,""no_positive"":0,""felt_annoyed"":0,""EOL_thoughts"":0}","","","","","","","","","","","","","","","","","","","","","","","","","","","","","","","","","","","","","","",""
"","pracInstructions","html-button-response","5","169352","0.0-5.0-0.0","11251","pracInstruc","0","","","","","","","","","","","","","","","","","","","","","","","","","","","","","","","","","","","","","","",""
"","pracInstructions","html-button-response","6","180244","0.0-5.0-0.1","10891","pracInstruc","0","","","","","","","","","","","","","","","","","","","","","","","","","","","","","","","","","","","","","","",""
"","pracInstructions","html-button-response","7","183981","0.0-5.0-0.2","3736","pracInstruc","0","","","","","","","","","","","","","","","","","","","","","","","","","","","","","","","","","","","","","","",""
"","pracInstructions","html-button-response","8","186082","0.0-5.0-0.3","2099","pracInstruc","0","","","","","","","","","","","","","","","","","","","","","","","","","","","","","","","","","","","","","","",""
"","pracInstructions","html-button-response","9","187934","0.0-5.0-0.4","1850","pracInstruc","0","","","","","","","","","","","","","","","","","","","","","","","","","","","","","","","","","","","","","","",""
"","pracInstructions","html-button-response","10","188868","0.0-5.0-0.5","932","pracInstruc","0","","","","","","","","","","","","","","","","","","","","","","","","","","","","","","","","","","","","","","",""
"","pracInstructions","html-button-response","11","192504","0.0-5.0-0.6","3634","pracInstruc","0","","","","","","","","","","","","","","","","","","","","","","","","","","","","","","","","","","","","","","",""
"","","html-button-response","12","232966","0.0-6.0","40461","<div style= ""font-size: 24px; color: white"">
                        
                            <p>First, Please hold a credit card up to your screen.</p>
                            <p>Adjust this box until it matches the size of the credit card.</p>
                            <div id=""calibration-box"" style=""
                                width: 506px;
                                height: 319px;
                                border: 2px solid white;
                                background-color: rgba(255,255,255,0.2);
                                margin: 20px auto;
                                resize: both;
                                overflow: hidden;
                            ""></div>
                        </div>
                    ","0","94","","","","","","","","","","","","","","","","","","","","","","","","","","","","","","","","","","","","","",""
"","fixation","html-keyboard-response","13","234321","0.0-7.0-0.0","null","fixation","null","","-1","-1","","","","","","","","","","","","","","","","","","","","","","","","","","","","","","","","","","","",""
"","numerosity","html-keyboard-response","14","234832","0.0-7.0-1.0","null","[Dot display: left=300, right=250, diff=50]","null","","-1","-1","300","250","50","","","","","","","","","","","","","","","","","","","","","","","","","","","","","","","","",""
"","confidence_first","html-keyboard-response","15","243423","0.0-7.0-2.0","8587.899999976158","Confidence judgement (first response)","","","-1","-1","","","","left","96.5","96.5","50","true","19","","","","","","","","","","","","","","","","","","","","","","","","","","",""
"","fixation","html-keyboard-response","16","244820","0.0-8.0-0.0","null","fixation","null","","-1","-1","","","","","","","","","","","","","","","","","","","","","","","","","","","","","","","","","","","",""
"","numerosity","html-keyboard-response","17","245332","0.0-8.0-1.0","null","[Dot display: left=250, right=300, diff=50]","null","","-1","-1","250","300","50","","","","","","","","","","","","","","","","","","","","","","","","","","","","","","","","",""
"","confidence_first","html-keyboard-response","18","247473","0.0-8.0-2.0","2140.2000000476837","Confidence judgement (first response)","","","-1","-1","","","","right","83.5","50","83.5","true","19","","","","","","","","","","","","","","","","","","","","","","","","","","",""
"","fixation","html-keyboard-response","19","248966","0.0-9.0-0.0","null","fixation","null","","-1","-1","","","","","","","","","","","","","","","","","","","","","","","","","","","","","","","","","","","",""
"","numerosity","html-keyboard-response","20","249478","0.0-9.0-1.0","null","[Dot display: left=250, right=300, diff=50]","null","","-1","-1","250","300","50","","","","","","","","","","","","","","","","","","","","","","","","","","","","","","","","",""
"","confidence_first","html-keyboard-response","21","252460","0.0-9.0-2.0","2980.899999976158","Confidence judgement (first response)","","","-1","-1","","","","right","57","50","57","true","19","","","","","","","","","","","","","","","","","","","","","","","","","","",""
"","fixation","html-keyboard-response","22","253771","0.0-10.0-0.0","null","fixation","null","","-1","-1","","","","","","","","","","","","","","","","","","","","","","","","","","","","","","","","","","","",""
"","numerosity","html-keyboard-response","23","254282","0.0-10.0-1.0","null","[Dot display: left=300, right=281, diff=19]","null","","-1","-1","300","281","19","","","","","","","","","","","","","","","","","","","","","","","","","","","","","","","","",""
"","confidence_first","html-keyboard-response","24","256781","0.0-10.0-2.0","2497.399999976158","Confidence judgement (first response)","","","-1","-1","","","","right","57.25","50","57.25","false","30","","","","","","","","","","","","","","","","","","","","","","","","","","",""
"","fixation","html-keyboard-response","25","258097","0.0-11.0-0.0","null","fixation","null","","-1","-1","","","","","","","","","","","","","","","","","","","","","","","","","","","","","","","","","","","",""
"","numerosity","html-keyboard-response","26","258608","0.0-11.0-1.0","null","[Dot display: left=270, right=300, diff=30]","null","","-1","-1","270","300","30","","","","","","","","","","","","","","","","","","","","","","","","","","","","","","","","",""
"","confidence_first","html-keyboard-response","27","261284","0.0-11.0-2.0","2673.600000023842","Confidence judgement (first response)","","","-1","-1","","","","right","53.5","50","53.5","true","29","","","","","","","","","","","","","","","","","","","","","","","","","","",""
"","fixation","html-keyboard-response","28","262501","0.0-12.0-0.0","null","fixation","null","","-1","-1","","","","","","","","","","","","","","","","","","","","","","","","","","","","","","","","","","","",""
"","numerosity","html-keyboard-response","29","263012","0.0-12.0-1.0","null","[Dot display: left=300, right=271, diff=29]","null","","-1","-1","300","271","29","","","","","","","","","","","","","","","","","","","","","","","","","","","","","","","","",""
"","confidence_first","html-keyboard-response","30","265755","0.0-12.0-2.0","2741.100000023842","Confidence judgement (first response)","","","-1","-1","","","","right","51.25","50","51.25","false","36","","","","","","","","","","","","","","","","","","","","","","","","","","",""
"","fixation","html-keyboard-response","31","267136","0.0-13.0-0.0","null","fixation","null","","-1","-1","","","","","","","","","","","","","","","","","","","","","","","","","","","","","","","","","","","",""
"","numerosity","html-keyboard-response","32","267647","0.0-13.0-1.0","null","[Dot display: left=264, right=300, diff=36]","null","","-1","-1","264","300","36","","","","","","","","","","","","","","","","","","","","","","","","","","","","","","","","",""
"","confidence_first","html-keyboard-response","33","269757","0.0-13.0-2.0","2107.2999999523163","Confidence judgement (first response)","","","-1","-1","","","","right","77.5","50","77.5","true","34","","","","","","","","","","","","","","","","","","","","","","","","","","",""
"","fixation","html-keyboard-response","34","271211","0.0-14.0-0.0","null","fixation","null","","-1","-1","","","","","","","","","","","","","","","","","","","","","","","","","","","","","","","","","","","",""
"","numerosity","html-keyboard-response","35","271723","0.0-14.0-1.0","null","[Dot display: left=300, right=266, diff=34]","null","","-1","-1","300","266","34","","","","","","","","","","","","","","","","","","","","","","","","","","","","","","","","",""
"","confidence_first","html-keyboard-response","36","274411","0.0-14.0-2.0","2685.5999999046326","Confidence judgement (first response)","","","-1","-1","","","","left","65.5","65.5","50","true","33","","","","","","","","","","","","","","","","","","","","","","","","","","",""
"","fixation","html-keyboard-response","37","275671","0.0-15.0-0.0","null","fixation","null","","-1","-1","","","","","","","","","","","","","","","","","","","","","","","","","","","","","","","","","","","",""
"","numerosity","html-keyboard-response","38","276182","0.0-15.0-1.0","null","[Dot display: left=267, right=300, diff=33]","null","","-1","-1","267","300","33","","","","","","","","","","","","","","","","","","","","","","","","","","","","","","","","",""
"","confidence_first","html-keyboard-response","39","279915","0.0-15.0-2.0","3731.2000000476837","Confidence judgement (first response)","","","-1","-1","","","","left","62.25","62.25","50","false","38","","","","","","","","","","","","","","","","","","","","","","","","","","",""
"","fixation","html-keyboard-response","40","281136","0.0-16.0-0.0","null","fixation","null","","-1","-1","","","","","","","","","","","","","","","","","","","","","","","","","","","","","","","","","","","",""
"","numerosity","html-keyboard-response","41","281646","0.0-16.0-1.0","null","[Dot display: left=262, right=300, diff=38]","null","","-1","-1","262","300","38","","","","","","","","","","","","","","","","","","","","","","","","","","","","","","","","",""
"","confidence_first","html-keyboard-response","42","283584","0.0-16.0-2.0","1935.7999999523163","Confidence judgement (first response)","","","-1","-1","","","","right","75.75","50","75.75","true","37","","","","","","","","","","","","","","","","","","","","","","","","","","",""
"","fixation","html-keyboard-response","43","285061","0.0-17.0-0.0","null","fixation","null","","-1","-1","","","","","","","","","","","","","","","","","","","","","","","","","","","","","","","","","","","",""
"","numerosity","html-keyboard-response","44","285573","0.0-17.0-1.0","null","[Dot display: left=263, right=300, diff=37]","null","","-1","-1","263","300","37","","","","","","","","","","","","","","","","","","","","","","","","","","","","","","","","",""
"","confidence_first","html-keyboard-response","45","288187","0.0-17.0-2.0","2612.100000023842","Confidence judgement (first response)","","","-1","-1","","","","right","51.25","50","51.25","true","36","","","","","","","","","","","","","","","","","","","","","","","","","","",""
"","fixation","html-keyboard-response","46","289626","0.0-18.0-0.0","null","fixation","null","","-1","-1","","","","","","","","","","","","","","","","","","","","","","","","","","","","","","","","","","","",""
"","numerosity","html-keyboard-response","47","290138","0.0-18.0-1.0","null","[Dot display: left=264, right=300, diff=36]","null","","-1","-1","264","300","36","","","","","","","","","","","","","","","","","","","","","","","","","","","","","","","","",""
"","confidence_first","html-keyboard-response","48","291690","0.0-18.0-2.0","1549.7000000476837","Confidence judgement (first response)","","","-1","-1","","","","right","62.25","50","62.25","true","35","","","","","","","","","","","","","","","","","","","","","","","","","","",""
"","fixation","html-keyboard-response","49","293071","0.0-19.0-0.0","null","fixation","null","","-1","-1","","","","","","","","","","","","","","","","","","","","","","","","","","","","","","","","","","","",""
"","numerosity","html-keyboard-response","50","293582","0.0-19.0-1.0","null","[Dot display: left=300, right=265, diff=35]","null","","-1","-1","300","265","35","","","","","","","","","","","","","","","","","","","","","","","","","","","","","","","","",""
"","confidence_first","html-keyboard-response","51","295642","0.0-19.0-2.0","2059","Confidence judgement (first response)","","","-1","-1","","","","left","71.5","71.5","50","true","34","","","","","","","","","","","","","","","","","","","","","","","","","","",""
"","fixation","html-keyboard-response","52","297086","0.0-20.0-0.0","null","fixation","null","","-1","-1","","","","","","","","","","","","","","","","","","","","","","","","","","","","","","","","","","","",""
"","numerosity","html-keyboard-response","53","297597","0.0-20.0-1.0","null","[Dot display: left=266, right=300, diff=34]","null","","-1","-1","266","300","34","","","","","","","","","","","","","","","","","","","","","","","","","","","","","","","","",""
"","confidence_first","html-keyboard-response","54","299413","0.0-20.0-2.0","1814.1000000238419","Confidence judgement (first response)","","","-1","-1","","","","right","62.5","50","62.5","true","34","","","","","","","","","","","","","","","","","","","","","","","","","","",""
"","fixation","html-keyboard-response","55","300686","0.0-21.0-0.0","null","fixation","null","","-1","-1","","","","","","","","","","","","","","","","","","","","","","","","","","","","","","","","","","","",""
"","numerosity","html-keyboard-response","56","301197","0.0-21.0-1.0","null","[Dot display: left=300, right=266, diff=34]","null","","-1","-1","300","266","34","","","","","","","","","","","","","","","","","","","","","","","","","","","","","","","","",""
"","confidence_first","html-keyboard-response","57","303214","0.0-21.0-2.0","2015.1999999284744","Confidence judgement (first response)","","","-1","-1","","","","right","59","50","59","false","37","","","","","","","","","","","","","","","","","","","","","","","","","","",""
"","fixation","html-keyboard-response","58","304580","0.0-22.0-0.0","null","fixation","null","","-1","-1","","","","","","","","","","","","","","","","","","","","","","","","","","","","","","","","","","","",""
"","numerosity","html-keyboard-response","59","305092","0.0-22.0-1.0","null","[Dot display: left=300, right=263, diff=37]","null","","-1","-1","300","263","37","","","","","","","","","","","","","","","","","","","","","","","","","","","","","","","","",""
"","confidence_first","html-keyboard-response","60","579287","0.0-22.0-2.0","274180.90000009537","Confidence judgement (first response)","","","-1","-1","","","","left","86.25","86.25","50","true","36","","","","","","","","","","","","","","","","","","","","","","","","","","",""
"","fixation","html-keyboard-response","61","580593","0.0-23.0-0.0","null","fixation","null","","-1","-1","","","","","","","","","","","","","","","","","","","","","","","","","","","","","","","","","","","",""
"","numerosity","html-keyboard-response","62","581104","0.0-23.0-1.0","null","[Dot display: left=264, right=300, diff=36]","null","","-1","-1","264","300","36","","","","","","","","","","","","","","","","","","","","","","","","","","","","","","","","",""
"","confidence_first","html-keyboard-response","63","583459","0.0-23.0-2.0","2352.5","Confidence judgement (first response)","","","-1","-1","","","","right","89.75","50","89.75","true","35","","","","","","","","","","","","","","","","","","","","","","","","","","",""
"","fixation","html-keyboard-response","64","584848","0.0-24.0-0.0","null","fixation","null","","-1","-1","","","","","","","","","","","","","","","","","","","","","","","","","","","","","","","","","","","",""
"","numerosity","html-keyboard-response","65","585364","0.0-24.0-1.0","null","[Dot display: left=265, right=300, diff=35]","null","","-1","-1","265","300","35","","","","","","","","","","","","","","","","","","","","","","","","","","","","","","","","",""
"","confidence_first","html-keyboard-response","66","586928","0.0-24.0-2.0","1561.3999999761581","Confidence judgement (first response)","","","-1","-1","","","","right","75.25","50","75.25","true","35","","","","","","","","","","","","","","","","","","","","","","","","","","",""
"","fixation","html-keyboard-response","67","588178","0.0-25.0-0.0","null","fixation","null","","-1","-1","","","","","","","","","","","","","","","","","","","","","","","","","","","","","","","","","","","",""
"","numerosity","html-keyboard-response","68","588694","0.0-25.0-1.0","null","[Dot display: left=300, right=265, diff=35]","null","","-1","-1","300","265","35","","","","","","","","","","","","","","","","","","","","","","","","","","","","","","","","",""
"","confidence_first","html-keyboard-response","69","590964","0.0-25.0-2.0","2267.899999976158","Confidence judgement (first response)","","","-1","-1","","","","left","55.25","55.25","50","true","34","","","","","","","","","","","","","","","","","","","","","","","","","","",""
"","fixation","html-keyboard-response","70","592257","0.0-26.0-0.0","null","fixation","null","","-1","-1","","","","","","","","","","","","","","","","","","","","","","","","","","","","","","","","","","","",""
"","numerosity","html-keyboard-response","71","592768","0.0-26.0-1.0","null","[Dot display: left=266, right=300, diff=34]","null","","-1","-1","266","300","34","","","","","","","","","","","","","","","","","","","","","","","","","","","","","","","","",""
"","confidence_first","html-keyboard-response","72","594534","0.0-26.0-2.0","1763.7999999523163","Confidence judgement (first response)","","","-1","-1","","","","right","80","50","80","true","34","","","","","","","","","","","","","","","","","","","","","","","","","","",""
"","fixation","html-keyboard-response","73","595902","0.0-27.0-0.0","null","fixation","null","","-1","-1","","","","","","","","","","","","","","","","","","","","","","","","","","","","","","","","","","","",""
"","numerosity","html-keyboard-response","74","596414","0.0-27.0-1.0","null","[Dot display: left=266, right=300, diff=34]","null","","-1","-1","266","300","34","","","","","","","","","","","","","","","","","","","","","","","","","","","","","","","","",""
"","confidence_first","html-keyboard-response","75","598286","0.0-27.0-2.0","1870.1999999284744","Confidence judgement (first response)","","","-1","-1","","","","right","78.5","50","78.5","true","33","","","","","","","","","","","","","","","","","","","","","","","","","","",""
"","fixation","html-keyboard-response","76","599603","0.0-28.0-0.0","null","fixation","null","","-1","-1","","","","","","","","","","","","","","","","","","","","","","","","","","","","","","","","","","","",""
"","numerosity","html-keyboard-response","77","600115","0.0-28.0-1.0","null","[Dot display: left=267, right=300, diff=33]","null","","-1","-1","267","300","33","","","","","","","","","","","","","","","","","","","","","","","","","","","","","","","","",""
"","confidence_first","html-keyboard-response","78","602188","0.0-28.0-2.0","2071.3000000715256","Confidence judgement (first response)","","","-1","-1","","","","right","67","50","67","true","33","","","","","","","","","","","","","","","","","","","","","","","","","","",""
"","fixation","html-keyboard-response","79","603693","0.0-29.0-0.0","null","fixation","null","","-1","-1","","","","","","","","","","","","","","","","","","","","","","","","","","","","","","","","","","","",""
"","numerosity","html-keyboard-response","80","604204","0.0-29.0-1.0","null","[Dot display: left=300, right=267, diff=33]","null","","-1","-1","300","267","33","","","","","","","","","","","","","","","","","","","","","","","","","","","","","","","","",""
"","confidence_first","html-keyboard-response","81","606058","0.0-29.0-2.0","1851.7000000476837","Confidence judgement (first response)","","","-1","-1","","","","right","72.5","50","72.5","false","35","","","","","","","","","","","","","","","","","","","","","","","","","","",""
"","fixation","html-keyboard-response","82","607532","0.0-30.0-0.0","null","fixation","null","","-1","-1","","","","","","","","","","","","","","","","","","","","","","","","","","","","","","","","","","","",""
"","numerosity","html-keyboard-response","83","608043","0.0-30.0-1.0","null","[Dot display: left=265, right=300, diff=35]","null","","-1","-1","265","300","35","","","","","","","","","","","","","","","","","","","","","","","","","","","","","","","","",""
"","confidence_first","html-keyboard-response","84","609895","0.0-30.0-2.0","1848.8999999761581","Confidence judgement (first response)","","","-1","-1","","","","right","68.5","50","68.5","true","34","","","","","","","","","","","","","","","","","","","","","","","","","","",""
"","fixation","html-keyboard-response","85","611182","0.0-31.0-0.0","null","fixation","null","","-1","-1","","","","","","","","","","","","","","","","","","","","","","","","","","","","","","","","","","","",""
"","numerosity","html-keyboard-response","86","611694","0.0-31.0-1.0","null","[Dot display: left=266, right=300, diff=34]","null","","-1","-1","266","300","34","","","","","","","","","","","","","","","","","","","","","","","","","","","","","","","","",""
"","confidence_first","html-keyboard-response","87","613496","0.0-31.0-2.0","1800.3999999761581","Confidence judgement (first response)","","","-1","-1","","","","right","60","50","60","true","34","","","","","","","","","","","","","","","","","","","","","","","","","","",""
"","expInstructions","html-button-response","88","662729","0.0-32.0-0.0","49231","expInstruc","0","","","","","","","","","","","","","","","","","","","","","","","","","","","","","","","","","","","","","","",""
"","expInstructions","html-button-response","89","669669","0.0-32.0-0.1","6938","expInstruc","0","","","","","","","","","","","","","","","","","","","","","","","","","","","","","","","","","","","","","","",""
"","expInstructions","html-button-response","90","674739","0.0-32.0-0.2","5069","expInstruc","0","","","","","","","","","","","","","","","","","","","","","","","","","","","","","","","","","","","","","","",""
"","expInstructions","html-button-response","91","1096515","0.0-32.0-0.3","421780","expInstruc","0","","","","","","","","","","","","","","","","","","","","","","","","","","","","","","","","","","","","","","",""
"","expInstructions","html-button-response","92","1100902","0.0-32.0-0.4","4386","expInstruc","0","","","","","","","","","","","","","","","","","","","","","","","","","","","","","","","","","","","","","","",""
"","expInstructions","html-button-response","93","1106956","0.0-32.0-0.5","6054","expInstruc","0","","","","","","","","","","","","","","","","","","","","","","","","","","","","","","","","","","","","","","",""
"","expInstructions","html-button-response","94","1111259","0.0-32.0-0.6","4302","expInstruc","0","","","","","","","","","","","","","","","","","","","","","","","","","","","","","","","","","","","","","","",""
"","expInstructions","html-button-response","95","1117180","0.0-32.0-0.7","5920","expInstruc","0","","","","","","","","","","","","","","","","","","","","","","","","","","","","","","","","","","","","","","",""
"","expInstructions","html-button-response","96","1129205","0.0-32.0-0.8","12024","expInstruc","0","","","","","","","","","","","","","","","","","","","","","","","","","","","","","","","","","","","","","","",""
"","expInstructions","html-button-response","97","1138562","0.0-32.0-0.9","9355","expInstruc","0","","","","","","","","","","","","","","","","","","","","","","","","","","","","","","","","","","","","","","",""
"","expInstructions","html-button-response","98","1143997","0.0-32.0-0.10","5434","expInstruc","0","","","","","","","","","","","","","","","","","","","","","","","","","","","","","","","","","","","","","","",""
"","expInstructions","html-button-response","99","1151671","0.0-32.0-0.11","7672","expInstruc","0","","","","","","","","","","","","","","","","","","","","","","","","","","","","","","","","","","","","","","",""
"","expInstructions","html-button-response","100","1153022","0.0-32.0-0.12","1349","expInstruc","0","","","","","","","","","","","","","","","","","","","","","","","","","","","","","","","","","","","","","","",""
"","block_message","html-button-response","101","1156291","0.0-33.0","3267","block message","0","","","","","","","","","","","","","1","","","","","","","","","","","","","","","","","","","","","","","","","",""
"","fixation","html-keyboard-response","102","1157705","0.0-34.0-0.0","null","fixation","null","","-1","-1","","","","","","","","","","","","","","","","","","","","","","","","","","","","","","","","","","","",""
"","numerosity","html-keyboard-response","103","1158218","0.0-34.0-1.0","null","[Dot display: left=266, right=300, diff=34]","null","","-1","-1","266","300","34","","","","","","","","","","","","","","","","","","","","","","","","","","","","","","","","",""
"","confidence_first","html-keyboard-response","104","1161562","0.0-34.0-2.0","3341.600000023842","Confidence judgement (first response)","","","-1","-1","","","","right","66.75","50","66.75","true","33","","","","","","","","","","","","","","","","","","","","","","","","","","",""
"","forced_advice_display","html-button-response","105","1163796","0.0-34.0-4.0-0.0","2233","forcedAdvice","0","","-1","-1","","","","","","","","","","","","","","","","","","","","","","","","","","","","","","","","","","","",""
"","show_advice","html-keyboard-response","106","1164605","0.0-34.0-4.0-1.0","null","[advice: left]","null","","-1","-1","","","","","","","","","","","left","","","","","","","","","","","","","","","","","","","","","","","","",""
"","confidence_second","html-keyboard-response","107","1167881","0.0-34.0-6.0","3274","Confidence judgment (second response)","","","-1","-1","","","","right","66.75","50","66.75","true","33","","","","","","","","","","","","","","","","","","","","","","","","","","",""
"","consolidated-trial-data","consolidated-trial-data","108","1167902","0.0-35.0","null","consolidated-trial-data","null","","","","","","","","","","","","","","","0","0","0","266","300","34","right","66.75","true","3341.600000023842","2","nan","left","right","66.75","false","true","3274","","","","","","",""
"","fixation","html-keyboard-response","109","1169369","0.0-36.0-0.0","null","fixation","null","","-1","-1","","","","","","","","","","","","","","","","","","","","","","","","","","","","","","","","","","","",""
"","numerosity","html-keyboard-response","110","1169882","0.0-36.0-1.0","null","[Dot display: left=300, right=267, diff=33]","null","","-1","-1","300","267","33","","","","","","","","","","","","","","","","","","","","","","","","","","","","","","","","",""
"","confidence_first","html-keyboard-response","111","1172686","0.0-36.0-2.0","2801.7999999523163","Confidence judgement (first response)","","","-1","-1","","","","left","62.5","62.5","50","true","33","","","","","","","","","","","","","","","","","","","","","","","","","","",""
"","forced_advice_display","html-button-response","112","1174120","0.0-36.0-4.0-0.0","1433","forcedAdvice","0","","-1","-1","","","","","","","","","","","","","","","","","","","","","","","","","","","","","","","","","","","",""
"","show_advice","html-keyboard-response","113","1174930","0.0-36.0-4.0-1.0","null","[advice: left]","null","","-1","-1","","","","","","","","","","","left","","","","","","","","","","","","","","","","","","","","","","","","",""
"","confidence_second","html-keyboard-response","114","1177839","0.0-36.0-6.0","2903.899999976158","Confidence judgment (second response)","","","-1","-1","","","","left","62.5","62.5","50","true","33","","","","","","","","","","","","","","","","","","","","","","","","","","",""
"","consolidated-trial-data","consolidated-trial-data","115","1177843","0.0-37.0","null","consolidated-trial-data","null","","","","","","","","","","","","","","","0","1","1","300","267","33","left","62.5","true","2801.7999999523163","2","nan","left","left","62.5","true","true","2903.899999976158","","","","","","",""
"","fixation","html-keyboard-response","116","1179321","0.0-38.0-0.0","null","fixation","null","","-1","-1","","","","","","","","","","","","","","","","","","","","","","","","","","","","","","","","","","","",""
"","numerosity","html-keyboard-response","117","1179836","0.0-38.0-1.0","null","[Dot display: left=267, right=300, diff=33]","null","","-1","-1","267","300","33","","","","","","","","","","","","","","","","","","","","","","","","","","","","","","","","",""
"","confidence_first","html-keyboard-response","118","1182310","0.0-38.0-2.0","2470.899999976158","Confidence judgement (first response)","","","-1","-1","","","","right","96.5","50","96.5","true","33","","","","","","","","","","","","","","","","","","","","","","","","","","",""
"","advice_choice","html-button-response","119","1183961","0.0-38.0-3.0-0.0","1650","[advice choice Y,N]","1","","-1","-1","","","","","","","","","","","","","","","","","","","","","","","","","","","","","","","","","","","",""
"","blank_screen","html-keyboard-response","120","1184770","0.0-38.0-3.0-2.0-0.0","null","blank","null","","-1","-1","","","","","","","","","","","","","","","","","","","","","","","","","","","","","","","","","","","",""
"","confidence_second","html-keyboard-response","121","1186696","0.0-38.0-6.0","1923.2999999523163","Confidence judgment (second response)","","","-1","-1","","","","right","96.5","50","96.5","true","33","","","","","","","","","","","","","","","","","","","","","","","","","","",""
"","consolidated-trial-data","consolidated-trial-data","122","1186698","0.0-39.0","null","consolidated-trial-data","null","","","","","","","","","","","","","","","0","2","2","267","300","33","right","96.5","true","2470.899999976158","1","no","left","right","96.5","false","true","1923.2999999523163","","","","","","",""
"","fixation","html-keyboard-response","123","1188125","0.0-40.0-0.0","null","fixation","null","","-1","-1","","","","","","","","","","","","","","","","","","","","","","","","","","","","","","","","","","","",""
"","numerosity","html-keyboard-response","124","1188636","0.0-40.0-1.0","null","[Dot display: left=300, right=267, diff=33]","null","","-1","-1","300","267","33","","","","","","","","","","","","","","","","","","","","","","","","","","","","","","","","",""
"","confidence_first","html-keyboard-response","125","1191383","0.0-40.0-2.0","2744.1999999284744","Confidence judgement (first response)","","","-1","-1","","","","left","70.75","70.75","50","true","32","","","","","","","","","","","","","","","","","","","","","","","","","","",""
"","no_advice_display","html-button-response","126","1192881","0.0-40.0-5.0-0.0","1497","noAdvice","0","","-1","-1","","","","","","","","","","","","","","","","","","","","","","","","","","","","","","","","","","","",""
"","blank_screen","html-keyboard-response","127","1193690","0.0-40.0-5.0-1.0","null","blank","null","","-1","-1","","","","","","","","","","","","","","","","","","","","","","","","","","","","","","","","","","","",""
"","confidence_second","html-keyboard-response","128","1195452","0.0-40.0-6.0","1760","Confidence judgment (second response)","","","-1","-1","","","","left","70.75","70.75","50","true","32","","","","","","","","","","","","","","","","","","","","","","","","","","",""
"","consolidated-trial-data","consolidated-trial-data","129","1195455","0.0-41.0","null","consolidated-trial-data","null","","","","","","","","","","","","","","","0","3","3","300","267","33","left","70.75","true","2744.1999999284744","3","no","left","left","70.75","true","true","1760","","","","","","",""
"","fixation","html-keyboard-response","130","1196700","0.0-42.0-0.0","null","fixation","null","","-1","-1","","","","","","","","","","","","","","","","","","","","","","","","","","","","","","","","","","","",""
"","numerosity","html-keyboard-response","131","1197212","0.0-42.0-1.0","null","[Dot display: left=300, right=268, diff=32]","null","","-1","-1","300","268","32","","","","","","","","","","","","","","","","","","","","","","","","","","","","","","","","",""
"","confidence_first","html-keyboard-response","132","1200022","0.0-42.0-2.0","2808.1999999284744","Confidence judgement (first response)","","","-1","-1","","","","left","97.75","97.75","50","true","32","","","","","","","","","","","","","","","","","","","","","","","","","","",""
"","no_advice_display","html-button-response","133","1201456","0.0-42.0-5.0-0.0","1432","noAdvice","0","","-1","-1","","","","","","","","","","","","","","","","","","","","","","","","","","","","","","","","","","","",""
"","blank_screen","html-keyboard-response","134","1202265","0.0-42.0-5.0-1.0","null","blank","null","","-1","-1","","","","","","","","","","","","","","","","","","","","","","","","","","","","","","","","","","","",""
"","confidence_second","html-keyboard-response","135","1203340","0.0-42.0-6.0","1073.4000000953674","Confidence judgment (second response)","","","-1","-1","","","","left","97.75","97.75","50","true","32","","","","","","","","","","","","","","","","","","","","","","","","","","",""
"","consolidated-trial-data","consolidated-trial-data","136","1203343","0.0-43.0","null","consolidated-trial-data","null","","","","","","","","","","","","","","","0","4","4","300","268","32","left","97.75","true","2808.1999999284744","3","no","left","left","97.75","true","true","1073.4000000953674","","","","","","",""
"","fixation","html-keyboard-response","137","1204685","0.0-44.0-0.0","null","fixation","null","","-1","-1","","","","","","","","","","","","","","","","","","","","","","","","","","","","","","","","","","","",""
"","numerosity","html-keyboard-response","138","1205196","0.0-44.0-1.0","null","[Dot display: left=300, right=268, diff=32]","null","","-1","-1","300","268","32","","","","","","","","","","","","","","","","","","","","","","","","","","","","","","","","",""
"","confidence_first","html-keyboard-response","139","1207694","0.0-44.0-2.0","2495.899999976158","Confidence judgement (first response)","","","-1","-1","","","","left","80.75","80.75","50","true","32","","","","","","","","","","","","","","","","","","","","","","","","","","",""
"","advice_choice","html-button-response","140","1210043","0.0-44.0-3.0-0.0","2348","[advice choice Y,N]","0","","-1","-1","","","","","","","","","","","","","","","","","","","","","","","","","","","","","","","","","","","",""
"","show_advice","html-keyboard-response","141","1210849","0.0-44.0-3.0-1.0-0.0","null","[advice: left]","null","","-1","-1","","","","","","","","","","","left","","","","","","","","","","","","","","","","","","","","","","","","",""
"","confidence_second","html-keyboard-response","142","1212397","0.0-44.0-6.0","1545.6999999284744","Confidence judgment (second response)","","","-1","-1","","","","left","80.75","80.75","50","true","32","","","","","","","","","","","","","","","","","","","","","","","","","","",""
"","consolidated-trial-data","consolidated-trial-data","143","1212400","0.0-45.0","null","consolidated-trial-data","null","","","","","","","","","","","","","","","0","5","5","300","268","32","left","80.75","true","2495.899999976158","1","yes","left","left","80.75","true","true","1545.6999999284744","","","","","","",""
"","fixation","html-keyboard-response","144","1213855","0.0-46.0-0.0","null","fixation","null","","-1","-1","","","","","","","","","","","","","","","","","","","","","","","","","","","","","","","","","","","",""
"","numerosity","html-keyboard-response","145","1214368","0.0-46.0-1.0","null","[Dot display: left=300, right=268, diff=32]","null","","-1","-1","300","268","32","","","","","","","","","","","","","","","","","","","","","","","","","","","","","","","","",""
"","confidence_first","html-keyboard-response","146","1220321","0.0-46.0-2.0","5950.899999976158","Confidence judgement (first response)","","","-1","-1","","","","right","57.5","50","57.5","false","33","","","","","","","","","","","","","","","","","","","","","","","","","","",""
"","forced_advice_display","html-button-response","147","1221571","0.0-46.0-4.0-0.0","1249","forcedAdvice","0","","-1","-1","","","","","","","","","","","","","","","","","","","","","","","","","","","","","","","","","","","",""
"","show_advice","html-keyboard-response","148","1222379","0.0-46.0-4.0-1.0","null","[advice: left]","null","","-1","-1","","","","","","","","","","","left","","","","","","","","","","","","","","","","","","","","","","","","",""
"","confidence_second","html-keyboard-response","149","1227157","0.0-46.0-6.0","4776.299999952316","Confidence judgment (second response)","","","-1","-1","","","","right","57.5","50","57.5","false","33","","","","","","","","","","","","","","","","","","","","","","","","","","",""
"","consolidated-trial-data","consolidated-trial-data","150","1227159","0.0-47.0","null","consolidated-trial-data","null","","","","","","","","","","","","","","","0","6","6","300","268","32","right","57.5","false","5950.899999976158","2","yes","left","right","57.5","true","false","4776.299999952316","","","","","","",""
"","fixation","html-keyboard-response","151","1228429","0.0-48.0-0.0","null","fixation","null","","-1","-1","","","","","","","","","","","","","","","","","","","","","","","","","","","","","","","","","","","",""
"","numerosity","html-keyboard-response","152","1228941","0.0-48.0-1.0","null","[Dot display: left=300, right=267, diff=33]","null","","-1","-1","300","267","33","","","","","","","","","","","","","","","","","","","","","","","","","","","","","","","","",""
"","confidence_first","html-keyboard-response","153","1230961","0.0-48.0-2.0","2018","Confidence judgement (first response)","","","-1","-1","","","","right","75.25","50","75.25","false","34","","","","","","","","","","","","","","","","","","","","","","","","","","",""
"","forced_advice_display","html-button-response","154","1232127","0.0-48.0-4.0-0.0","1165","forcedAdvice","0","","-1","-1","","","","","","","","","","","","","","","","","","","","","","","","","","","","","","","","","","","",""
"","show_advice","html-keyboard-response","155","1232934","0.0-48.0-4.0-1.0","null","[advice: left]","null","","-1","-1","","","","","","","","","","","left","","","","","","","","","","","","","","","","","","","","","","","","",""
"","confidence_second","html-keyboard-response","156","1233845","0.0-48.0-6.0","909.3999999761581","Confidence judgment (second response)","","","-1","-1","","","","right","75.25","50","75.25","false","34","","","","","","","","","","","","","","","","","","","","","","","","","","",""
"","consolidated-trial-data","consolidated-trial-data","157","1233848","0.0-49.0","null","consolidated-trial-data","null","","","","","","","","","","","","","","","0","7","7","300","267","33","right","75.25","false","2018","2","yes","left","right","75.25","true","false","909.3999999761581","","","","","","",""
"","fixation","html-keyboard-response","158","1235154","0.0-50.0-0.0","null","fixation","null","","-1","-1","","","","","","","","","","","","","","","","","","","","","","","","","","","","","","","","","","","",""
"","numerosity","html-keyboard-response","159","1235666","0.0-50.0-1.0","null","[Dot display: left=300, right=266, diff=34]","null","","-1","-1","300","266","34","","","","","","","","","","","","","","","","","","","","","","","","","","","","","","","","",""
"","confidence_first","html-keyboard-response","160","1237565","0.0-50.0-2.0","1896.3999999761581","Confidence judgement (first response)","","","-1","-1","","","","right","79.25","50","79.25","false","36","","","","","","","","","","","","","","","","","","","","","","","","","","",""
"","advice_choice","html-button-response","161","1239616","0.0-50.0-3.0-0.0","2049","[advice choice Y,N]","1","","-1","-1","","","","","","","","","","","","","","","","","","","","","","","","","","","","","","","","","","","",""
"","blank_screen","html-keyboard-response","162","1240425","0.0-50.0-3.0-2.0-0.0","null","blank","null","","-1","-1","","","","","","","","","","","","","","","","","","","","","","","","","","","","","","","","","","","",""
"","confidence_second","html-keyboard-response","163","1241966","0.0-50.0-6.0","1539.8000000715256","Confidence judgment (second response)","","","-1","-1","","","","right","79.25","50","79.25","false","36","","","","","","","","","","","","","","","","","","","","","","","","","","",""
"","consolidated-trial-data","consolidated-trial-data","164","1241970","0.0-51.0","null","consolidated-trial-data","null","","","","","","","","","","","","","","","0","8","8","300","266","34","right","79.25","false","1896.3999999761581","1","no","left","right","79.25","true","false","1539.8000000715256","","","","","","",""
"","fixation","html-keyboard-response","165","1243274","0.0-52.0-0.0","null","fixation","null","","-1","-1","","","","","","","","","","","","","","","","","","","","","","","","","","","","","","","","","","","",""
"","numerosity","html-keyboard-response","166","1243785","0.0-52.0-1.0","null","[Dot display: left=300, right=264, diff=36]","null","","-1","-1","300","264","36","","","","","","","","","","","","","","","","","","","","","","","","","","","","","","","","",""
"","confidence_first","html-keyboard-response","167","1246939","0.0-52.0-2.0","3151.1999999284744","Confidence judgement (first response)","","","-1","-1","","","","right","99.5","50","99.5","false","37","","","","","","","","","","","","","","","","","","","","","","","","","","",""
"","advice_choice","html-button-response","168","1248371","0.0-52.0-3.0-0.0","1431","[advice choice Y,N]","1","","-1","-1","","","","","","","","","","","","","","","","","","","","","","","","","","","","","","","","","","","",""
"","blank_screen","html-keyboard-response","169","1249179","0.0-52.0-3.0-2.0-0.0","null","blank","null","","-1","-1","","","","","","","","","","","","","","","","","","","","","","","","","","","","","","","","","","","",""
"","confidence_second","html-keyboard-response","170","1251107","0.0-52.0-6.0","1926.2000000476837","Confidence judgment (second response)","","","-1","-1","","","","right","99.5","50","99.5","false","37","","","","","","","","","","","","","","","","","","","","","","","","","","",""
"","consolidated-trial-data","consolidated-trial-data","171","1251110","0.0-53.0","null","consolidated-trial-data","null","","","","","","","","","","","","","","","0","9","9","300","264","36","right","99.5","false","3151.1999999284744","1","no","left","right","99.5","true","false","1926.2000000476837","","","","","","",""
"","fixation","html-keyboard-response","172","1252489","0.0-54.0-0.0","null","fixation","null","","-1","-1","","","","","","","","","","","","","","","","","","","","","","","","","","","","","","","","","","","",""
"","numerosity","html-keyboard-response","173","1253001","0.0-54.0-1.0","null","[Dot display: left=300, right=263, diff=37]","null","","-1","-1","300","263","37","","","","","","","","","","","","","","","","","","","","","","","","","","","","","","","","",""
"","confidence_first","html-keyboard-response","174","1255845","0.0-54.0-2.0","2841.3000000715256","Confidence judgement (first response)","","","-1","-1","","","","right","51.25","50","51.25","false","39","","","","","","","","","","","","","","","","","","","","","","","","","","",""
"","forced_advice_display","html-button-response","175","1257163","0.0-54.0-4.0-0.0","1317","forcedAdvice","0","","-1","-1","","","","","","","","","","","","","","","","","","","","","","","","","","","","","","","","","","","",""
"","show_advice","html-keyboard-response","176","1257969","0.0-54.0-4.0-1.0","null","[advice: left]","null","","-1","-1","","","","","","","","","","","left","","","","","","","","","","","","","","","","","","","","","","","","",""
"","confidence_second","html-keyboard-response","177","1259312","0.0-54.0-6.0","1340.8000000715256","Confidence judgment (second response)","","","-1","-1","","","","right","51.25","50","51.25","false","39","","","","","","","","","","","","","","","","","","","","","","","","","","",""
"","consolidated-trial-data","consolidated-trial-data","178","1259315","0.0-55.0","null","consolidated-trial-data","null","","","","","","","","","","","","","","","0","10","10","300","263","37","right","51.25","false","2841.3000000715256","2","no","left","right","51.25","true","false","1340.8000000715256","","","","","","",""
"","attncheck","html-button-response","179","1261897","0.0-56.0","2581","attncheck","1","","","","","","","","","","","","","","","","","","","","","","","","","","","","","","","","","true","Continue","","","","",""
"","fixation","html-keyboard-response","180","1263249","0.0-57.0-0.0","null","fixation","null","","-1","-1","","","","","","","","","","","","","","","","","","","","","","","","","","","","","","","","","","","",""
"","numerosity","html-keyboard-response","181","1263761","0.0-57.0-1.0","null","[Dot display: left=300, right=261, diff=39]","null","","-1","-1","300","261","39","","","","","","","","","","","","","","","","","","","","","","","","","","","","","","","","",""
"","confidence_first","html-keyboard-response","182","1266119","0.0-57.0-2.0","2356","Confidence judgement (first response)","","","-1","-1","","","","left","76","76","50","true","39","","","","","","","","","","","","","","","","","","","","","","","","","","",""
"","no_advice_display","html-button-response","183","1267435","0.0-57.0-5.0-0.0","1315","noAdvice","0","","-1","-1","","","","","","","","","","","","","","","","","","","","","","","","","","","","","","","","","","","",""
"","blank_screen","html-keyboard-response","184","1268244","0.0-57.0-5.0-1.0","null","blank","null","","-1","-1","","","","","","","","","","","","","","","","","","","","","","","","","","","","","","","","","","","",""
"","confidence_second","html-keyboard-response","185","1269154","0.0-57.0-6.0","908.2000000476837","Confidence judgment (second response)","","","-1","-1","","","","left","76","76","50","true","39","","","","","","","","","","","","","","","","","","","","","","","","","","",""
"","consolidated-trial-data","consolidated-trial-data","186","1269157","0.0-58.0","null","consolidated-trial-data","null","","","","","","","","","","","","","","","0","11","11","300","261","39","left","76","true","2356","3","no","left","left","76","true","true","908.2000000476837","","","","","","",""
"","fixation","html-keyboard-response","187","1270610","0.0-59.0-0.0","null","fixation","null","","-1","-1","","","","","","","","","","","","","","","","","","","","","","","","","","","","","","","","","","","",""
"","numerosity","html-keyboard-response","188","1271121","0.0-59.0-1.0","null","[Dot display: left=300, right=261, diff=39]","null","","-1","-1","300","261","39","","","","","","","","","","","","","","","","","","","","","","","","","","","","","","","","",""
"","confidence_first","html-keyboard-response","189","1273340","0.0-59.0-2.0","2217.1999999284744","Confidence judgement (first response)","","","-1","-1","","","","left","90","90","50","true","38","","","","","","","","","","","","","","","","","","","","","","","","","","",""
"","advice_choice","html-button-response","190","1274374","0.0-59.0-3.0-0.0","1032","[advice choice Y,N]","1","","-1","-1","","","","","","","","","","","","","","","","","","","","","","","","","","","","","","","","","","","",""
"","blank_screen","html-keyboard-response","191","1275184","0.0-59.0-3.0-2.0-0.0","null","blank","null","","-1","-1","","","","","","","","","","","","","","","","","","","","","","","","","","","","","","","","","","","",""
"","confidence_second","html-keyboard-response","192","1276459","0.0-59.0-6.0","1272.6999999284744","Confidence judgment (second response)","","","-1","-1","","","","left","90","90","50","true","38","","","","","","","","","","","","","","","","","","","","","","","","","","",""
"","consolidated-trial-data","consolidated-trial-data","193","1276478","0.0-60.0","null","consolidated-trial-data","null","","","","","","","","","","","","","","","0","12","12","300","261","39","left","90","true","2217.1999999284744","1","no","left","left","90","true","true","1272.6999999284744","","","","","","",""
"","fixation","html-keyboard-response","194","1277783","0.0-61.0-0.0","null","fixation","null","","-1","-1","","","","","","","","","","","","","","","","","","","","","","","","","","","","","","","","","","","",""
"","numerosity","html-keyboard-response","195","1278296","0.0-61.0-1.0","null","[Dot display: left=262, right=300, diff=38]","null","","-1","-1","262","300","38","","","","","","","","","","","","","","","","","","","","","","","","","","","","","","","","",""
"","confidence_first","html-keyboard-response","196","1280511","0.0-61.0-2.0","2213.2000000476837","Confidence judgement (first response)","","","-1","-1","","","","right","96","50","96","true","38","","","","","","","","","","","","","","","","","","","","","","","","","","",""
"","no_advice_display","html-button-response","197","1281495","0.0-61.0-5.0-0.0","982","noAdvice","0","","-1","-1","","","","","","","","","","","","","","","","","","","","","","","","","","","","","","","","","","","",""
"","blank_screen","html-keyboard-response","198","1282303","0.0-61.0-5.0-1.0","null","blank","null","","-1","-1","","","","","","","","","","","","","","","","","","","","","","","","","","","","","","","","","","","",""
"","confidence_second","html-keyboard-response","199","1283780","0.0-61.0-6.0","1474.8999999761581","Confidence judgment (second response)","","","-1","-1","","","","right","96","50","96","true","38","","","","","","","","","","","","","","","","","","","","","","","","","","",""
"","consolidated-trial-data","consolidated-trial-data","200","1283783","0.0-62.0","null","consolidated-trial-data","null","","","","","","","","","","","","","","","0","13","13","262","300","38","right","96","true","2213.2000000476837","3","no","left","right","96","false","true","1474.8999999761581","","","","","","",""
"","fixation","html-keyboard-response","201","1285109","0.0-63.0-0.0","null","fixation","null","","-1","-1","","","","","","","","","","","","","","","","","","","","","","","","","","","","","","","","","","","",""
"","numerosity","html-keyboard-response","202","1285621","0.0-63.0-1.0","null","[Dot display: left=262, right=300, diff=38]","null","","-1","-1","262","300","38","","","","","","","","","","","","","","","","","","","","","","","","","","","","","","","","",""
"","confidence_first","html-keyboard-response","203","1288250","0.0-63.0-2.0","2627.2000000476837","Confidence judgement (first response)","","","-1","-1","","","","right","77","50","77","true","38","","","","","","","","","","","","","","","","","","","","","","","","","","",""
"","no_advice_display","html-button-response","204","1289384","0.0-63.0-5.0-0.0","1132","noAdvice","0","","-1","-1","","","","","","","","","","","","","","","","","","","","","","","","","","","","","","","","","","","",""
"","blank_screen","html-keyboard-response","205","1290193","0.0-63.0-5.0-1.0","null","blank","null","","-1","-1","","","","","","","","","","","","","","","","","","","","","","","","","","","","","","","","","","","",""
"","confidence_second","html-keyboard-response","206","1291568","0.0-63.0-6.0","1373.6999999284744","Confidence judgment (second response)","","","-1","-1","","","","right","77","50","77","true","38","","","","","","","","","","","","","","","","","","","","","","","","","","",""
"","consolidated-trial-data","consolidated-trial-data","207","1291571","0.0-64.0","null","consolidated-trial-data","null","","","","","","","","","","","","","","","0","14","14","262","300","38","right","77","true","2627.2000000476837","3","no","left","right","77","false","true","1373.6999999284744","","","","","","",""
"","block_message","html-button-response","208","1541467","0.0-65.0","249757","block message","0","","","","","","","","","","","","","2","","","","","","","","","","","","","","","","","","","","","","","","","",""
"","fixation","html-keyboard-response","209","1542965","0.0-66.0-0.0","null","fixation","null","","-1","-1","","","","","","","","","","","","","","","","","","","","","","","","","","","","","","","","","","","",""
"","numerosity","html-keyboard-response","210","1543478","0.0-66.0-1.0","null","[Dot display: left=262, right=300, diff=38]","null","","-1","-1","262","300","38","","","","","","","","","","","","","","","","","","","","","","","","","","","","","","","","",""
"","confidence_first","html-keyboard-response","211","1545386","0.0-66.0-2.0","1906.6999999284744","Confidence judgement (first response)","","","-1","-1","","","","right","82","50","82","true","37","","","","","","","","","","","","","","","","","","","","","","","","","","",""
"","forced_advice_display","html-button-response","212","1546653","0.0-66.0-4.0-0.0","1265","forcedAdvice","0","","-1","-1","","","","","","","","","","","","","","","","","","","","","","","","","","","","","","","","","","","",""
"","show_advice","html-keyboard-response","213","1547461","0.0-66.0-4.0-1.0","null","[advice: right]","null","","-1","-1","","","","","","","","","","","right","","","","","","","","","","","","","","","","","","","","","","","","",""
"","confidence_second","html-keyboard-response","214","1548738","0.0-66.0-6.0","1274.6999999284744","Confidence judgment (second response)","","","-1","-1","","","","right","82","50","82","true","37","","","","","","","","","","","","","","","","","","","","","","","","","","",""
"","consolidated-trial-data","consolidated-trial-data","215","1548741","0.0-67.0","null","consolidated-trial-data","null","","","","","","","","","","","","","","","1","0","15","262","300","38","right","82","true","1906.6999999284744","2","no","right","right","82","true","true","1274.6999999284744","","","","","","",""
"","fixation","html-keyboard-response","216","1550041","0.0-68.0-0.0","null","fixation","null","","-1","-1","","","","","","","","","","","","","","","","","","","","","","","","","","","","","","","","","","","",""
"","numerosity","html-keyboard-response","217","1550552","0.0-68.0-1.0","null","[Dot display: left=263, right=300, diff=37]","null","","-1","-1","263","300","37","","","","","","","","","","","","","","","","","","","","","","","","","","","","","","","","",""
"","confidence_first","html-keyboard-response","218","1552407","0.0-68.0-2.0","1852.7999999523163","Confidence judgement (first response)","","","-1","-1","","","","right","81.25","50","81.25","true","37","","","","","","","","","","","","","","","","","","","","","","","","","","",""
"","forced_advice_display","html-button-response","219","1553892","0.0-68.0-4.0-0.0","1482","forcedAdvice","0","","-1","-1","","","","","","","","","","","","","","","","","","","","","","","","","","","","","","","","","","","",""
"","show_advice","html-keyboard-response","220","1554701","0.0-68.0-4.0-1.0","null","[advice: right]","null","","-1","-1","","","","","","","","","","","right","","","","","","","","","","","","","","","","","","","","","","","","",""
"","confidence_second","html-keyboard-response","221","1555994","0.0-68.0-6.0","1290.2999999523163","Confidence judgment (second response)","","","-1","-1","","","","right","81.25","50","81.25","true","37","","","","","","","","","","","","","","","","","","","","","","","","","","",""
"","consolidated-trial-data","consolidated-trial-data","222","1555997","0.0-69.0","null","consolidated-trial-data","null","","","","","","","","","","","","","","","1","1","16","263","300","37","right","81.25","true","1852.7999999523163","2","no","right","right","81.25","true","true","1290.2999999523163","","","","","","",""
"","fixation","html-keyboard-response","223","1557426","0.0-70.0-0.0","null","fixation","null","","-1","-1","","","","","","","","","","","","","","","","","","","","","","","","","","","","","","","","","","","",""
"","numerosity","html-keyboard-response","224","1557938","0.0-70.0-1.0","null","[Dot display: left=263, right=300, diff=37]","null","","-1","-1","263","300","37","","","","","","","","","","","","","","","","","","","","","","","","","","","","","","","","",""
"","confidence_first","html-keyboard-response","225","1559830","0.0-70.0-2.0","1890","Confidence judgement (first response)","","","-1","-1","","","","right","79.75","50","79.75","true","37","","","","","","","","","","","","","","","","","","","","","","","","","","",""
"","advice_choice","html-button-response","226","1561047","0.0-70.0-3.0-0.0","1215","[advice choice Y,N]","1","","-1","-1","","","","","","","","","","","","","","","","","","","","","","","","","","","","","","","","","","","",""
"","blank_screen","html-keyboard-response","227","1561856","0.0-70.0-3.0-2.0-0.0","null","blank","null","","-1","-1","","","","","","","","","","","","","","","","","","","","","","","","","","","","","","","","","","","",""
"","confidence_second","html-keyboard-response","228","1563049","0.0-70.0-6.0","1190.3999999761581","Confidence judgment (second response)","","","-1","-1","","","","right","79.75","50","79.75","true","37","","","","","","","","","","","","","","","","","","","","","","","","","","",""
"","consolidated-trial-data","consolidated-trial-data","229","1563051","0.0-71.0","null","consolidated-trial-data","null","","","","","","","","","","","","","","","1","2","17","263","300","37","right","79.75","true","1890","1","no","right","right","79.75","true","true","1190.3999999761581","","","","","","",""
"","attncheck","html-button-response","230","1565151","0.0-72.0","2098","attncheck","1","","","","","","","","","","","","","","","","","","","","","","","","","","","","","","","","","true","Continue","","","","",""
"","fixation","html-keyboard-response","231","1566451","0.0-73.0-0.0","null","fixation","null","","-1","-1","","","","","","","","","","","","","","","","","","","","","","","","","","","","","","","","","","","",""
"","numerosity","html-keyboard-response","232","1566963","0.0-73.0-1.0","null","[Dot display: left=263, right=300, diff=37]","null","","-1","-1","263","300","37","","","","","","","","","","","","","","","","","","","","","","","","","","","","","","","","",""
"","confidence_first","html-keyboard-response","233","1569071","0.0-73.0-2.0","2106.5","Confidence judgement (first response)","","","-1","-1","","","","right","97","50","97","true","36","","","","","","","","","","","","","","","","","","","","","","","","","","",""
"","no_advice_display","html-button-response","234","1570454","0.0-73.0-5.0-0.0","1382","noAdvice","0","","-1","-1","","","","","","","","","","","","","","","","","","","","","","","","","","","","","","","","","","","",""
"","blank_screen","html-keyboard-response","235","1571261","0.0-73.0-5.0-1.0","null","blank","null","","-1","-1","","","","","","","","","","","","","","","","","","","","","","","","","","","","","","","","","","","",""
"","confidence_second","html-keyboard-response","236","1572855","0.0-73.0-6.0","1592.4000000953674","Confidence judgment (second response)","","","-1","-1","","","","right","97","50","97","true","36","","","","","","","","","","","","","","","","","","","","","","","","","","",""
"","consolidated-trial-data","consolidated-trial-data","237","1572858","0.0-74.0","null","consolidated-trial-data","null","","","","","","","","","","","","","","","1","3","18","263","300","37","right","97","true","2106.5","3","no","right","right","97","true","true","1592.4000000953674","","","","","","",""
"","fixation","html-keyboard-response","238","1574297","0.0-75.0-0.0","null","fixation","null","","-1","-1","","","","","","","","","","","","","","","","","","","","","","","","","","","","","","","","","","","",""
"","numerosity","html-keyboard-response","239","1574813","0.0-75.0-1.0","null","[Dot display: left=264, right=300, diff=36]","null","","-1","-1","264","300","36","","","","","","","","","","","","","","","","","","","","","","","","","","","","","","","","",""
"","confidence_first","html-keyboard-response","240","1576876","0.0-75.0-2.0","2061","Confidence judgement (first response)","","","-1","-1","","","","right","86.5","50","86.5","true","36","","","","","","","","","","","","","","","","","","","","","","","","","","",""
"","no_advice_display","html-button-response","241","1578093","0.0-75.0-5.0-0.0","1215","noAdvice","0","","-1","-1","","","","","","","","","","","","","","","","","","","","","","","","","","","","","","","","","","","",""
"","blank_screen","html-keyboard-response","242","1578901","0.0-75.0-5.0-1.0","null","blank","null","","-1","-1","","","","","","","","","","","","","","","","","","","","","","","","","","","","","","","","","","","",""
"","confidence_second","html-keyboard-response","243","1581095","0.0-75.0-6.0","2191.899999976158","Confidence judgment (second response)","","","-1","-1","","","","right","86.5","50","86.5","true","36","","","","","","","","","","","","","","","","","","","","","","","","","","",""
"","consolidated-trial-data","consolidated-trial-data","244","1581115","0.0-76.0","null","consolidated-trial-data","null","","","","","","","","","","","","","","","1","4","19","264","300","36","right","86.5","true","2061","3","no","right","right","86.5","true","true","2191.899999976158","","","","","","",""
"","fixation","html-keyboard-response","245","1582561","0.0-77.0-0.0","null","fixation","null","","-1","-1","","","","","","","","","","","","","","","","","","","","","","","","","","","","","","","","","","","",""
"","numerosity","html-keyboard-response","246","1583072","0.0-77.0-1.0","null","[Dot display: left=300, right=264, diff=36]","null","","-1","-1","300","264","36","","","","","","","","","","","","","","","","","","","","","","","","","","","","","","","","",""
"","confidence_first","html-keyboard-response","247","1585347","0.0-77.0-2.0","2272.7999999523163","Confidence judgement (first response)","","","-1","-1","","","","right","87","50","87","false","37","","","","","","","","","","","","","","","","","","","","","","","","","","",""
"","advice_choice","html-button-response","248","1586433","0.0-77.0-3.0-0.0","1085","[advice choice Y,N]","1","","-1","-1","","","","","","","","","","","","","","","","","","","","","","","","","","","","","","","","","","","",""
"","blank_screen","html-keyboard-response","249","1587241","0.0-77.0-3.0-2.0-0.0","null","blank","null","","-1","-1","","","","","","","","","","","","","","","","","","","","","","","","","","","","","","","","","","","",""
"","confidence_second","html-keyboard-response","250","1588468","0.0-77.0-6.0","1224.1000000238419","Confidence judgment (second response)","","","-1","-1","","","","right","87","50","87","false","37","","","","","","","","","","","","","","","","","","","","","","","","","","",""
"","consolidated-trial-data","consolidated-trial-data","251","1588470","0.0-78.0","null","consolidated-trial-data","null","","","","","","","","","","","","","","","1","5","20","300","264","36","right","87","false","2272.7999999523163","1","no","right","right","87","false","false","1224.1000000238419","","","","","","",""
"","fixation","html-keyboard-response","252","1589767","0.0-79.0-0.0","null","fixation","null","","-1","-1","","","","","","","","","","","","","","","","","","","","","","","","","","","","","","","","","","","",""
"","numerosity","html-keyboard-response","253","1590284","0.0-79.0-1.0","null","[Dot display: left=263, right=300, diff=37]","null","","-1","-1","263","300","37","","","","","","","","","","","","","","","","","","","","","","","","","","","","","","","","",""
"","confidence_first","html-keyboard-response","254","1592021","0.0-79.0-2.0","1734.1999999284744","Confidence judgement (first response)","","","-1","-1","","","","right","88.75","50","88.75","true","37","","","","","","","","","","","","","","","","","","","","","","","","","","",""
"","forced_advice_display","html-button-response","255","1593021","0.0-79.0-4.0-0.0","998","forcedAdvice","0","","-1","-1","","","","","","","","","","","","","","","","","","","","","","","","","","","","","","","","","","","",""
"","show_advice","html-keyboard-response","256","1593827","0.0-79.0-4.0-1.0","null","[advice: right]","null","","-1","-1","","","","","","","","","","","right","","","","","","","","","","","","","","","","","","","","","","","","",""
"","confidence_second","html-keyboard-response","257","1595022","0.0-79.0-6.0","1192.7000000476837","Confidence judgment (second response)","","","-1","-1","","","","right","88.75","50","88.75","true","37","","","","","","","","","","","","","","","","","","","","","","","","","","",""
"","consolidated-trial-data","consolidated-trial-data","258","1595025","0.0-80.0","null","consolidated-trial-data","null","","","","","","","","","","","","","","","1","6","21","263","300","37","right","88.75","true","1734.1999999284744","2","no","right","right","88.75","true","true","1192.7000000476837","","","","","","",""
"","fixation","html-keyboard-response","259","1596402","0.0-81.0-0.0","null","fixation","null","","-1","-1","","","","","","","","","","","","","","","","","","","","","","","","","","","","","","","","","","","",""
"","numerosity","html-keyboard-response","260","1596913","0.0-81.0-1.0","null","[Dot display: left=300, right=263, diff=37]","null","","-1","-1","300","263","37","","","","","","","","","","","","","","","","","","","","","","","","","","","","","","","","",""
"","confidence_first","html-keyboard-response","261","1598959","0.0-81.0-2.0","2043.3000000715256","Confidence judgement (first response)","","","-1","-1","","","","right","87.5","50","87.5","false","38","","","","","","","","","","","","","","","","","","","","","","","","","","",""
"","forced_advice_display","html-button-response","262","1643241","0.0-81.0-4.0-0.0","44279","forcedAdvice","0","","-1","-1","","","","","","","","","","","","","","","","","","","","","","","","","","","","","","","","","","","",""
"","show_advice","html-keyboard-response","263","1644048","0.0-81.0-4.0-1.0","null","[advice: left]","null","","-1","-1","","","","","","","","","","","left","","","","","","","","","","","","","","","","","","","","","","","","",""
"","confidence_second","html-keyboard-response","264","1645011","0.0-81.0-6.0","960.6999999284744","Confidence judgment (second response)","","","-1","-1","","","","right","87.5","50","87.5","false","38","","","","","","","","","","","","","","","","","","","","","","","","","","",""
"","consolidated-trial-data","consolidated-trial-data","265","1645013","0.0-82.0","null","consolidated-trial-data","null","","","","","","","","","","","","","","","1","7","22","300","263","37","right","87.5","false","2043.3000000715256","2","no","left","right","87.5","true","false","960.6999999284744","","","","","","",""
"","fixation","html-keyboard-response","266","1646324","0.0-83.0-0.0","null","fixation","null","","-1","-1","","","","","","","","","","","","","","","","","","","","","","","","","","","","","","","","","","","",""
"","numerosity","html-keyboard-response","267","1646834","0.0-83.0-1.0","null","[Dot display: left=262, right=300, diff=38]","null","","-1","-1","262","300","38","","","","","","","","","","","","","","","","","","","","","","","","","","","","","","","","",""
"","confidence_first","html-keyboard-response","268","1648679","0.0-83.0-2.0","1843.1999999284744","Confidence judgement (first response)","","","-1","-1","","","","right","84.25","50","84.25","true","38","","","","","","","","","","","","","","","","","","","","","","","","","","",""
"","advice_choice","html-button-response","269","1649746","0.0-83.0-3.0-0.0","1065","[advice choice Y,N]","1","","-1","-1","","","","","","","","","","","","","","","","","","","","","","","","","","","","","","","","","","","",""
"","blank_screen","html-keyboard-response","270","1650554","0.0-83.0-3.0-2.0-0.0","null","blank","null","","-1","-1","","","","","","","","","","","","","","","","","","","","","","","","","","","","","","","","","","","",""
"","confidence_second","html-keyboard-response","271","1651565","0.0-83.0-6.0","1008.1000000238419","Confidence judgment (second response)","","","-1","-1","","","","right","84.25","50","84.25","true","38","","","","","","","","","","","","","","","","","","","","","","","","","","",""
"","consolidated-trial-data","consolidated-trial-data","272","1651567","0.0-84.0","null","consolidated-trial-data","null","","","","","","","","","","","","","","","1","8","23","262","300","38","right","84.25","true","1843.1999999284744","1","no","left","right","84.25","false","true","1008.1000000238419","","","","","","",""
"","fixation","html-keyboard-response","273","1652943","0.0-85.0-0.0","null","fixation","null","","-1","-1","","","","","","","","","","","","","","","","","","","","","","","","","","","","","","","","","","","",""
"","numerosity","html-keyboard-response","274","1653456","0.0-85.0-1.0","null","[Dot display: left=300, right=262, diff=38]","null","","-1","-1","300","262","38","","","","","","","","","","","","","","","","","","","","","","","","","","","","","","","","",""
"","confidence_first","html-keyboard-response","275","1655002","0.0-85.0-2.0","1543.6000000238419","Confidence judgement (first response)","","","-1","-1","","","","right","84.5","50","84.5","false","39","","","","","","","","","","","","","","","","","","","","","","","","","","",""
"","advice_choice","html-button-response","276","1656034","0.0-85.0-3.0-0.0","1031","[advice choice Y,N]","1","","-1","-1","","","","","","","","","","","","","","","","","","","","","","","","","","","","","","","","","","","",""
"","blank_screen","html-keyboard-response","277","1656843","0.0-85.0-3.0-2.0-0.0","null","blank","null","","-1","-1","","","","","","","","","","","","","","","","","","","","","","","","","","","","","","","","","","","",""
"","confidence_second","html-keyboard-response","278","1658186","0.0-85.0-6.0","1340.5","Confidence judgment (second response)","","","-1","-1","","","","right","84.5","50","84.5","false","39","","","","","","","","","","","","","","","","","","","","","","","","","","",""
"","consolidated-trial-data","consolidated-trial-data","279","1658188","0.0-86.0","null","consolidated-trial-data","null","","","","","","","","","","","","","","","1","9","24","300","262","38","right","84.5","false","1543.6000000238419","1","no","left","right","84.5","true","false","1340.5","","","","","","",""
"","fixation","html-keyboard-response","280","1659679","0.0-87.0-0.0","null","fixation","null","","-1","-1","","","","","","","","","","","","","","","","","","","","","","","","","","","","","","","","","","","",""
"","numerosity","html-keyboard-response","281","1660191","0.0-87.0-1.0","null","[Dot display: left=300, right=261, diff=39]","null","","-1","-1","300","261","39","","","","","","","","","","","","","","","","","","","","","","","","","","","","","","","","",""
"","confidence_first","html-keyboard-response","282","1661873","0.0-87.0-2.0","1679.8000000715256","Confidence judgement (first response)","","","-1","-1","","","","right","81","50","81","false","40","","","","","","","","","","","","","","","","","","","","","","","","","","",""
"","forced_advice_display","html-button-response","283","1663006","0.0-87.0-4.0-0.0","1132","forcedAdvice","0","","-1","-1","","","","","","","","","","","","","","","","","","","","","","","","","","","","","","","","","","","",""
"","show_advice","html-keyboard-response","284","1663813","0.0-87.0-4.0-1.0","null","[advice: left]","null","","-1","-1","","","","","","","","","","","left","","","","","","","","","","","","","","","","","","","","","","","","",""
"","confidence_second","html-keyboard-response","285","1664807","0.0-87.0-6.0","992.5999999046326","Confidence judgment (second response)","","","-1","-1","","","","right","81","50","81","false","40","","","","","","","","","","","","","","","","","","","","","","","","","","",""
"","consolidated-trial-data","consolidated-trial-data","286","1664810","0.0-88.0","null","consolidated-trial-data","null","","","","","","","","","","","","","","","1","10","25","300","261","39","right","81","false","1679.8000000715256","2","no","left","right","81","true","false","992.5999999046326","","","","","","",""
"","attncheck","html-button-response","287","1666509","0.0-89.0","1697","attncheck","1","","","","","","","","","","","","","","","","","","","","","","","","","","","","","","","","","false","Stop","","","","",""
"","fixation","html-keyboard-response","288","1667763","0.0-90.0-0.0","null","fixation","null","","-1","-1","","","","","","","","","","","","","","","","","","","","","","","","","","","","","","","","","","","",""
"","numerosity","html-keyboard-response","289","1668275","0.0-90.0-1.0","null","[Dot display: left=260, right=300, diff=40]","null","","-1","-1","260","300","40","","","","","","","","","","","","","","","","","","","","","","","","","","","","","","","","",""
"","confidence_first","html-keyboard-response","290","1669995","0.0-90.0-2.0","1717.1999999284744","Confidence judgement (first response)","","","-1","-1","","","","right","81.5","50","81.5","true","40","","","","","","","","","","","","","","","","","","","","","","","","","","",""
"","no_advice_display","html-button-response","291","1671029","0.0-90.0-5.0-0.0","1032","noAdvice","0","","-1","-1","","","","","","","","","","","","","","","","","","","","","","","","","","","","","","","","","","","",""
"","blank_screen","html-keyboard-response","292","1671834","0.0-90.0-5.0-1.0","null","blank","null","","-1","-1","","","","","","","","","","","","","","","","","","","","","","","","","","","","","","","","","","","",""
"","confidence_second","html-keyboard-response","293","1672694","0.0-90.0-6.0","858.7000000476837","Confidence judgment (second response)","","","-1","-1","","","","right","81.5","50","81.5","true","40","","","","","","","","","","","","","","","","","","","","","","","","","","",""
"","consolidated-trial-data","consolidated-trial-data","294","1672698","0.0-91.0","null","consolidated-trial-data","null","","","","","","","","","","","","","","","1","11","26","260","300","40","right","81.5","true","1717.1999999284744","3","no","left","right","81.5","false","true","858.7000000476837","","","","","","",""
"","fixation","html-keyboard-response","295","1674099","0.0-92.0-0.0","null","fixation","null","","-1","-1","","","","","","","","","","","","","","","","","","","","","","","","","","","","","","","","","","","",""
"","numerosity","html-keyboard-response","296","1674611","0.0-92.0-1.0","null","[Dot display: left=260, right=300, diff=40]","null","","-1","-1","260","300","40","","","","","","","","","","","","","","","","","","","","","","","","","","","","","","","","",""
"","confidence_first","html-keyboard-response","297","1676500","0.0-92.0-2.0","1887.3999999761581","Confidence judgement (first response)","","","-1","-1","","","","right","98.25","50","98.25","true","40","","","","","","","","","","","","","","","","","","","","","","","","","","",""
"","advice_choice","html-button-response","298","1677633","0.0-92.0-3.0-0.0","1131","[advice choice Y,N]","1","","-1","-1","","","","","","","","","","","","","","","","","","","","","","","","","","","","","","","","","","","",""
"","blank_screen","html-keyboard-response","299","1678439","0.0-92.0-3.0-2.0-0.0","null","blank","null","","-1","-1","","","","","","","","","","","","","","","","","","","","","","","","","","","","","","","","","","","",""
"","confidence_second","html-keyboard-response","300","1679369","0.0-92.0-6.0","927.3999999761581","Confidence judgment (second response)","","","-1","-1","","","","right","98.25","50","98.25","true","40","","","","","","","","","","","","","","","","","","","","","","","","","","",""
"","consolidated-trial-data","consolidated-trial-data","301","1679371","0.0-93.0","null","consolidated-trial-data","null","","","","","","","","","","","","","","","1","12","27","260","300","40","right","98.25","true","1887.3999999761581","1","no","left","right","98.25","false","true","927.3999999761581","","","","","","",""
"","fixation","html-keyboard-response","302","1680753","0.0-94.0-0.0","null","fixation","null","","-1","-1","","","","","","","","","","","","","","","","","","","","","","","","","","","","","","","","","","","",""
"","numerosity","html-keyboard-response","303","1681266","0.0-94.0-1.0","null","[Dot display: left=300, right=260, diff=40]","null","","-1","-1","300","260","40","","","","","","","","","","","","","","","","","","","","","","","","","","","","","","","","",""
"","confidence_first","html-keyboard-response","304","1683188","0.0-94.0-2.0","1919.3999999761581","Confidence judgement (first response)","","","-1","-1","","","","right","85.75","50","85.75","false","41","","","","","","","","","","","","","","","","","","","","","","","","","","",""
"","no_advice_display","html-button-response","305","1684288","0.0-94.0-5.0-0.0","1099","noAdvice","0","","-1","-1","","","","","","","","","","","","","","","","","","","","","","","","","","","","","","","","","","","",""
"","blank_screen","html-keyboard-response","306","1685095","0.0-94.0-5.0-1.0","null","blank","null","","-1","-1","","","","","","","","","","","","","","","","","","","","","","","","","","","","","","","","","","","",""
"","confidence_second","html-keyboard-response","307","1686223","0.0-94.0-6.0","1126.5","Confidence judgment (second response)","","","-1","-1","","","","right","85.75","50","85.75","false","41","","","","","","","","","","","","","","","","","","","","","","","","","","",""
"","consolidated-trial-data","consolidated-trial-data","308","1686226","0.0-95.0","null","consolidated-trial-data","null","","","","","","","","","","","","","","","1","13","28","300","260","40","right","85.75","false","1919.3999999761581","3","no","left","right","85.75","true","false","1126.5","","","","","","",""
"","fixation","html-keyboard-response","309","1687645","0.0-96.0-0.0","null","fixation","null","","-1","-1","","","","","","","","","","","","","","","","","","","","","","","","","","","","","","","","","","","",""
"","numerosity","html-keyboard-response","310","1688157","0.0-96.0-1.0","null","[Dot display: left=259, right=300, diff=41]","null","","-1","-1","259","300","41","","","","","","","","","","","","","","","","","","","","","","","","","","","","","","","","",""
"","confidence_first","html-keyboard-response","311","1690027","0.0-96.0-2.0","1867.9000000953674","Confidence judgement (first response)","","","-1","-1","","","","right","85.25","50","85.25","true","41","","","","","","","","","","","","","","","","","","","","","","","","","","",""
"","no_advice_display","html-button-response","312","1691327","0.0-96.0-5.0-0.0","1298","noAdvice","0","","-1","-1","","","","","","","","","","","","","","","","","","","","","","","","","","","","","","","","","","","",""
"","blank_screen","html-keyboard-response","313","1692134","0.0-96.0-5.0-1.0","null","blank","null","","-1","-1","","","","","","","","","","","","","","","","","","","","","","","","","","","","","","","","","","","",""
"","confidence_second","html-keyboard-response","314","1693428","0.0-96.0-6.0","1291.2999999523163","Confidence judgment (second response)","","","-1","-1","","","","right","85.25","50","85.25","true","41","","","","","","","","","","","","","","","","","","","","","","","","","","",""
"","consolidated-trial-data","consolidated-trial-data","315","1693431","0.0-97.0","null","consolidated-trial-data","null","","","","","","","","","","","","","","","1","14","29","259","300","41","right","85.25","true","1867.9000000953674","3","no","left","right","85.25","false","true","1291.2999999523163","","","","","","",""
"","block_message","html-button-response","316","1702952","0.0-98.0","9518","block message","0","","","","","","","","","","","","","3","","","","","","","","","","","","","","","","","","","","","","","","","",""
"","fixation","html-keyboard-response","317","1704245","0.0-99.0-0.0","null","fixation","null","","-1","-1","","","","","","","","","","","","","","","","","","","","","","","","","","","","","","","","","","","",""
"","numerosity","html-keyboard-response","318","1704757","0.0-99.0-1.0","null","[Dot display: left=300, right=259, diff=41]","null","","-1","-1","300","259","41","","","","","","","","","","","","","","","","","","","","","","","","","","","","","","","","",""
"","confidence_first","html-keyboard-response","319","1709355","0.0-99.0-2.0","4596.100000023842","Confidence judgement (first response)","","","-1","-1","","","","left","50.25","50.25","50","true","40","","","","","","","","","","","","","","","","","","","","","","","","","","",""
"","forced_advice_display","html-button-response","320","1710708","0.0-99.0-4.0-0.0","1352","forcedAdvice","0","","-1","-1","","","","","","","","","","","","","","","","","","","","","","","","","","","","","","","","","","","",""
"","show_advice","html-keyboard-response","321","1711515","0.0-99.0-4.0-1.0","null","[advice: left]","null","","-1","-1","","","","","","","","","","","left","","","","","","","","","","","","","","","","","","","","","","","","",""
"","confidence_second","html-keyboard-response","322","1712392","0.0-99.0-6.0","875.2999999523163","Confidence judgment (second response)","","","-1","-1","","","","left","50.25","50.25","50","true","40","","","","","","","","","","","","","","","","","","","","","","","","","","",""
"","consolidated-trial-data","consolidated-trial-data","323","1712395","0.0-100.0","null","consolidated-trial-data","null","","","","","","","","","","","","","","","2","0","30","300","259","41","left","50.25","true","4596.100000023842","2","no","left","left","50.25","true","true","875.2999999523163","","","","","","",""
"","fixation","html-keyboard-response","324","1713610","0.0-101.0-0.0","null","fixation","null","","-1","-1","","","","","","","","","","","","","","","","","","","","","","","","","","","","","","","","","","","",""
"","numerosity","html-keyboard-response","325","1714123","0.0-101.0-1.0","null","[Dot display: left=300, right=260, diff=40]","null","","-1","-1","300","260","40","","","","","","","","","","","","","","","","","","","","","","","","","","","","","","","","",""
"","confidence_first","html-keyboard-response","326","1715912","0.0-101.0-2.0","1787.5999999046326","Confidence judgement (first response)","","","-1","-1","","","","left","67.5","67.5","50","true","40","","","","","","","","","","","","","","","","","","","","","","","","","","",""
"","forced_advice_display","html-button-response","327","1716946","0.0-101.0-4.0-0.0","1032","forcedAdvice","0","","-1","-1","","","","","","","","","","","","","","","","","","","","","","","","","","","","","","","","","","","",""
"","show_advice","html-keyboard-response","328","1717755","0.0-101.0-4.0-1.0","null","[advice: left]","null","","-1","-1","","","","","","","","","","","left","","","","","","","","","","","","","","","","","","","","","","","","",""
"","confidence_second","html-keyboard-response","329","1719114","0.0-101.0-6.0","1356.5","Confidence judgment (second response)","","","-1","-1","","","","left","67.5","67.5","50","true","40","","","","","","","","","","","","","","","","","","","","","","","","","","",""
"","consolidated-trial-data","consolidated-trial-data","330","1719117","0.0-102.0","null","consolidated-trial-data","null","","","","","","","","","","","","","","","2","1","31","300","260","40","left","67.5","true","1787.5999999046326","2","no","left","left","67.5","true","true","1356.5","","","","","","",""
"","fixation","html-keyboard-response","331","1720405","0.0-103.0-0.0","null","fixation","null","","-1","-1","","","","","","","","","","","","","","","","","","","","","","","","","","","","","","","","","","","",""
"","numerosity","html-keyboard-response","332","1720918","0.0-103.0-1.0","null","[Dot display: left=300, right=260, diff=40]","null","","-1","-1","300","260","40","","","","","","","","","","","","","","","","","","","","","","","","","","","","","","","","",""
"","confidence_first","html-keyboard-response","333","1723031","0.0-103.0-2.0","2111.5","Confidence judgement (first response)","","","-1","-1","","","","left","74.75","74.75","50","true","40","","","","","","","","","","","","","","","","","","","","","","","","","","",""
"","advice_choice","html-button-response","334","1723868","0.0-103.0-3.0-0.0","835","[advice choice Y,N]","1","","-1","-1","","","","","","","","","","","","","","","","","","","","","","","","","","","","","","","","","","","",""
"","blank_screen","html-keyboard-response","335","1724676","0.0-103.0-3.0-2.0-0.0","null","blank","null","","-1","-1","","","","","","","","","","","","","","","","","","","","","","","","","","","","","","","","","","","",""
"","confidence_second","html-keyboard-response","336","1726035","0.0-103.0-6.0","1356.8999999761581","Confidence judgment (second response)","","","-1","-1","","","","left","74.75","74.75","50","true","40","","","","","","","","","","","","","","","","","","","","","","","","","","",""
"","consolidated-trial-data","consolidated-trial-data","337","1726038","0.0-104.0","null","consolidated-trial-data","null","","","","","","","","","","","","","","","2","2","32","300","260","40","left","74.75","true","2111.5","1","no","left","left","74.75","true","true","1356.8999999761581","","","","","","",""
"","fixation","html-keyboard-response","338","1727416","0.0-105.0-0.0","null","fixation","null","","-1","-1","","","","","","","","","","","","","","","","","","","","","","","","","","","","","","","","","","","",""
"","numerosity","html-keyboard-response","339","1727926","0.0-105.0-1.0","null","[Dot display: left=260, right=300, diff=40]","null","","-1","-1","260","300","40","","","","","","","","","","","","","","","","","","","","","","","","","","","","","","","","",""
"","confidence_first","html-keyboard-response","340","1729920","0.0-105.0-2.0","1992.3999999761581","Confidence judgement (first response)","","","-1","-1","","","","right","85.5","50","85.5","true","40","","","","","","","","","","","","","","","","","","","","","","","","","","",""
"","no_advice_display","html-button-response","341","1731121","0.0-105.0-5.0-0.0","1200","noAdvice","0","","-1","-1","","","","","","","","","","","","","","","","","","","","","","","","","","","","","","","","","","","",""
"","blank_screen","html-keyboard-response","342","1731930","0.0-105.0-5.0-1.0","null","blank","null","","-1","-1","","","","","","","","","","","","","","","","","","","","","","","","","","","","","","","","","","","",""
"","confidence_second","html-keyboard-response","343","1733043","0.0-105.0-6.0","1111","Confidence judgment (second response)","","","-1","-1","","","","right","85.5","50","85.5","true","40","","","","","","","","","","","","","","","","","","","","","","","","","","",""
"","consolidated-trial-data","consolidated-trial-data","344","1733045","0.0-106.0","null","consolidated-trial-data","null","","","","","","","","","","","","","","","2","3","33","260","300","40","right","85.5","true","1992.3999999761581","3","no","left","right","85.5","false","true","1111","","","","","","",""
"","fixation","html-keyboard-response","345","1734481","0.0-107.0-0.0","null","fixation","null","","-1","-1","","","","","","","","","","","","","","","","","","","","","","","","","","","","","","","","","","","",""
"","numerosity","html-keyboard-response","346","1734997","0.0-107.0-1.0","null","[Dot display: left=260, right=300, diff=40]","null","","-1","-1","260","300","40","","","","","","","","","","","","","","","","","","","","","","","","","","","","","","","","",""
"","confidence_first","html-keyboard-response","347","1736778","0.0-107.0-2.0","1778.5999999046326","Confidence judgement (first response)","","","-1","-1","","","","left","72.5","72.5","50","false","41","","","","","","","","","","","","","","","","","","","","","","","","","","",""
"","no_advice_display","html-button-response","348","1737859","0.0-107.0-5.0-0.0","1080","noAdvice","0","","-1","-1","","","","","","","","","","","","","","","","","","","","","","","","","","","","","","","","","","","",""
"","blank_screen","html-keyboard-response","349","1738665","0.0-107.0-5.0-1.0","null","blank","null","","-1","-1","","","","","","","","","","","","","","","","","","","","","","","","","","","","","","","","","","","",""
"","confidence_second","html-keyboard-response","350","1740044","0.0-107.0-6.0","1376.6000000238419","Confidence judgment (second response)","","","-1","-1","","","","left","72.5","72.5","50","false","41","","","","","","","","","","","","","","","","","","","","","","","","","","",""
"","consolidated-trial-data","consolidated-trial-data","351","1740048","0.0-108.0","null","consolidated-trial-data","null","","","","","","","","","","","","","","","2","4","34","260","300","40","left","72.5","false","1778.5999999046326","3","no","left","left","72.5","false","false","1376.6000000238419","","","","","","",""
"","fixation","html-keyboard-response","352","1741275","0.0-109.0-0.0","null","fixation","null","","-1","-1","","","","","","","","","","","","","","","","","","","","","","","","","","","","","","","","","","","",""
"","numerosity","html-keyboard-response","353","1741794","0.0-109.0-1.0","null","[Dot display: left=259, right=300, diff=41]","null","","-1","-1","259","300","41","","","","","","","","","","","","","","","","","","","","","","","","","","","","","","","","",""
"","confidence_first","html-keyboard-response","354","1743665","0.0-109.0-2.0","1869.2000000476837","Confidence judgement (first response)","","","-1","-1","","","","right","95.25","50","95.25","true","40","","","","","","","","","","","","","","","","","","","","","","","","","","",""
"","advice_choice","html-button-response","355","1744499","0.0-109.0-3.0-0.0","832","[advice choice Y,N]","1","","-1","-1","","","","","","","","","","","","","","","","","","","","","","","","","","","","","","","","","","","",""
"","blank_screen","html-keyboard-response","356","1745306","0.0-109.0-3.0-2.0-0.0","null","blank","null","","-1","-1","","","","","","","","","","","","","","","","","","","","","","","","","","","","","","","","","","","",""
"","confidence_second","html-keyboard-response","357","1746701","0.0-109.0-6.0","1392.1000000238419","Confidence judgment (second response)","","","-1","-1","","","","right","95.25","50","95.25","true","40","","","","","","","","","","","","","","","","","","","","","","","","","","",""
"","consolidated-trial-data","consolidated-trial-data","358","1746704","0.0-110.0","null","consolidated-trial-data","null","","","","","","","","","","","","","","","2","5","35","259","300","41","right","95.25","true","1869.2000000476837","1","no","left","right","95.25","false","true","1392.1000000238419","","","","","","",""
"","fixation","html-keyboard-response","359","1747926","0.0-111.0-0.0","null","fixation","null","","-1","-1","","","","","","","","","","","","","","","","","","","","","","","","","","","","","","","","","","","",""
"","numerosity","html-keyboard-response","360","1748439","0.0-111.0-1.0","null","[Dot display: left=300, right=260, diff=40]","null","","-1","-1","300","260","40","","","","","","","","","","","","","","","","","","","","","","","","","","","","","","","","",""
"","confidence_first","html-keyboard-response","361","1750638","0.0-111.0-2.0","2197.0999999046326","Confidence judgement (first response)","","","-1","-1","","","","left","74.5","74.5","50","true","40","","","","","","","","","","","","","","","","","","","","","","","","","","",""
"","forced_advice_display","html-button-response","362","1751655","0.0-111.0-4.0-0.0","1015","forcedAdvice","0","","-1","-1","","","","","","","","","","","","","","","","","","","","","","","","","","","","","","","","","","","",""
"","show_advice","html-keyboard-response","363","1752462","0.0-111.0-4.0-1.0","null","[advice: left]","null","","-1","-1","","","","","","","","","","","left","","","","","","","","","","","","","","","","","","","","","","","","",""
"","confidence_second","html-keyboard-response","364","1753673","0.0-111.0-6.0","1208.8999999761581","Confidence judgment (second response)","","","-1","-1","","","","left","74.5","74.5","50","true","40","","","","","","","","","","","","","","","","","","","","","","","","","","",""
"","consolidated-trial-data","consolidated-trial-data","365","1753675","0.0-112.0","null","consolidated-trial-data","null","","","","","","","","","","","","","","","2","6","36","300","260","40","left","74.5","true","2197.0999999046326","2","no","left","left","74.5","true","true","1208.8999999761581","","","","","","",""
"","fixation","html-keyboard-response","366","1755132","0.0-113.0-0.0","null","fixation","null","","-1","-1","","","","","","","","","","","","","","","","","","","","","","","","","","","","","","","","","","","",""
"","numerosity","html-keyboard-response","367","1755648","0.0-113.0-1.0","null","[Dot display: left=260, right=300, diff=40]","null","","-1","-1","260","300","40","","","","","","","","","","","","","","","","","","","","","","","","","","","","","","","","",""
"","confidence_first","html-keyboard-response","368","1757276","0.0-113.0-2.0","1625.6000000238419","Confidence judgement (first response)","","","-1","-1","","","","right","95.75","50","95.75","true","40","","","","","","","","","","","","","","","","","","","","","","","","","","",""
"","forced_advice_display","html-button-response","369","1758177","0.0-113.0-4.0-0.0","900","forcedAdvice","0","","-1","-1","","","","","","","","","","","","","","","","","","","","","","","","","","","","","","","","","","","",""
"","show_advice","html-keyboard-response","370","1758986","0.0-113.0-4.0-1.0","null","[advice: right]","null","","-1","-1","","","","","","","","","","","right","","","","","","","","","","","","","","","","","","","","","","","","",""
"","confidence_second","html-keyboard-response","371","1760093","0.0-113.0-6.0","1104.8999999761581","Confidence judgment (second response)","","","-1","-1","","","","right","95.75","50","95.75","true","40","","","","","","","","","","","","","","","","","","","","","","","","","","",""
"","consolidated-trial-data","consolidated-trial-data","372","1760113","0.0-114.0","null","consolidated-trial-data","null","","","","","","","","","","","","","","","2","7","37","260","300","40","right","95.75","true","1625.6000000238419","2","no","right","right","95.75","true","true","1104.8999999761581","","","","","","",""
"","attncheck","html-button-response","373","1761579","0.0-115.0","1464","attncheck","1","","","","","","","","","","","","","","","","","","","","","","","","","","","","","","","","","true","Continue","","","","",""
"","fixation","html-keyboard-response","374","1763046","0.0-116.0-0.0","null","fixation","null","","-1","-1","","","","","","","","","","","","","","","","","","","","","","","","","","","","","","","","","","","",""
"","numerosity","html-keyboard-response","375","1763559","0.0-116.0-1.0","null","[Dot display: left=260, right=300, diff=40]","null","","-1","-1","260","300","40","","","","","","","","","","","","","","","","","","","","","","","","","","","","","","","","",""
"","confidence_first","html-keyboard-response","376","1766349","0.0-116.0-2.0","2788.5","Confidence judgement (first response)","","","-1","-1","","","","right","99.5","50","99.5","true","40","","","","","","","","","","","","","","","","","","","","","","","","","","",""
"","advice_choice","html-button-response","377","1767666","0.0-116.0-3.0-0.0","1315","[advice choice Y,N]","1","","-1","-1","","","","","","","","","","","","","","","","","","","","","","","","","","","","","","","","","","","",""
"","blank_screen","html-keyboard-response","378","1768472","0.0-116.0-3.0-2.0-0.0","null","blank","null","","-1","-1","","","","","","","","","","","","","","","","","","","","","","","","","","","","","","","","","","","",""
"","confidence_second","html-keyboard-response","379","1769552","0.0-116.0-6.0","1077","Confidence judgment (second response)","","","-1","-1","","","","right","99.5","50","99.5","true","40","","","","","","","","","","","","","","","","","","","","","","","","","","",""
"","consolidated-trial-data","consolidated-trial-data","380","1769571","0.0-117.0","null","consolidated-trial-data","null","","","","","","","","","","","","","","","2","8","38","260","300","40","right","99.5","true","2788.5","1","no","right","right","99.5","true","true","1077","","","","","","",""
"","fixation","html-keyboard-response","381","1770897","0.0-118.0-0.0","null","fixation","null","","-1","-1","","","","","","","","","","","","","","","","","","","","","","","","","","","","","","","","","","","",""
"","numerosity","html-keyboard-response","382","1771408","0.0-118.0-1.0","null","[Dot display: left=300, right=260, diff=40]","null","","-1","-1","300","260","40","","","","","","","","","","","","","","","","","","","","","","","","","","","","","","","","",""
"","confidence_first","html-keyboard-response","383","1773855","0.0-118.0-2.0","2444.100000023842","Confidence judgement (first response)","","","-1","-1","","","","left","79.5","79.5","50","true","39","","","","","","","","","","","","","","","","","","","","","","","","","","",""
"","advice_choice","html-button-response","384","1775004","0.0-118.0-3.0-0.0","1147","[advice choice Y,N]","1","","-1","-1","","","","","","","","","","","","","","","","","","","","","","","","","","","","","","","","","","","",""
