"success","task","trial_type","trial_index","time_elapsed","internal_node_id","rt","stimulus","response","pixels_per_unit","itrial","iblock","leftDots","rightDots","difference","selected_side","confidence_value","left_confidence","right_confidence","correct","threshold","block_num","advice_direction","block","trial","trialid","dotsLeft","dotsRight","dotsDiff","selectedSide_first","confidence_first","correct_1","rt_1","adviceCond","adviceChoice","adviceDir","selectedSide_second","confidence_second","adviceCorrect","correct_2","rt_2","attention_check_correct","target_button","top_prompt","bottom_prompt","top_response","bottom_response","question_order"
"true","fullscreen_enter","fullscreen","0","3647","0.0-0.0","","","","","","","","","","","","","","","","","","","","","","","","","","","","","","","","","","","","","","","","","",""
"","welcome","html-button-response","1","6059","0.0-1.0","2409","welcome_msg","0","","","","","","","","","","","","","","","","","","","","","","","","","","","","","","","","","","","","","","",""
"","PISdoc","html-button-response","2","74896","0.0-2.0","68831","PISdoc","0","","","","","","","","","","","","","","","","","","","","","","","","","","","","","","","","","","","","","","",""
"","demographics","survey-html-form","3","84479","0.0-3.0","9580","","{""age"":""42"",""gender"":""female"",""id"":""8428""}","","","","","","","","","","","","","","","","","","","","","","","","","","","","","","","","","","","","","","",""
"","dass10","survey-likert","4","175746","0.0-4.0","91261","","{""felt_panic"":0,""no_initiative"":1,""felt_blue"":1,""was_intolerant"":1,""nothing_forward"":0,""felt_scared"":0,""over_react"":1,""felt_worry"":0,""no_relax"":1,""no_positive"":0,""felt_annoyed"":0,""EOL_thoughts"":0}","","","","","","","","","","","","","","","","","","","","","","","","","","","","","","","","","","","","","","",""
"","pracInstructions","html-button-response","5","188127","0.0-5.0-0.0","12377","pracInstruc","0","","","","","","","","","","","","","","","","","","","","","","","","","","","","","","","","","","","","","","",""
"","pracInstructions","html-button-response","6","256544","0.0-5.0-0.1","68414","pracInstruc","0","","","","","","","","","","","","","","","","","","","","","","","","","","","","","","","","","","","","","","",""
"","pracInstructions","html-button-response","7","269360","0.0-5.0-0.2","12813","pracInstruc","0","","","","","","","","","","","","","","","","","","","","","","","","","","","","","","","","","","","","","","",""
"","pracInstructions","html-button-response","8","278477","0.0-5.0-0.3","9114","pracInstruc","0","","","","","","","","","","","","","","","","","","","","","","","","","","","","","","","","","","","","","","",""
"","pracInstructions","html-button-response","9","283977","0.0-5.0-0.4","5497","pracInstruc","0","","","","","","","","","","","","","","","","","","","","","","","","","","","","","","","","","","","","","","",""
"","pracInstructions","html-button-response","10","285694","0.0-5.0-0.5","1714","pracInstruc","0","","","","","","","","","","","","","","","","","","","","","","","","","","","","","","","","","","","","","","",""
"","pracInstructions","html-button-response","11","294643","0.0-5.0-0.6","8947","pracInstruc","0","","","","","","","","","","","","","","","","","","","","","","","","","","","","","","","","","","","","","","",""
"","","html-button-response","12","351528","0.0-6.0","56882","<div style= ""font-size: 24px; color: white"">
                        
                            <p>First, Please hold a credit card up to your screen.</p>
                            <p>Adjust this box until it matches the size of the credit card.</p>
                            <div id=""calibration-box"" style=""
                                width: 506px;
                                height: 319px;
                                border: 2px solid white;
                                background-color: rgba(255,255,255,0.2);
                                margin: 20px auto;
                                resize: both;
                                overflow: hidden;
                            ""></div>
                        </div>
                    ","0","151","","","","","","","","","","","","","","","","","","","","","","","","","","","","","","","","","","","","","",""
"","fixation","html-keyboard-response","13","353026","0.0-7.0-0.0","null","fixation","null","","-1","-1","","","","","","","","","","","","","","","","","","","","","","","","","","","","","","","","","","","",""
"","numerosity","html-keyboard-response","14","353534","0.0-7.0-1.0","null","[Dot display: left=300, right=250, diff=50]","null","","-1","-1","300","250","50","","","","","","","","","","","","","","","","","","","","","","","","","","","","","","","","",""
"","confidence_first","html-keyboard-response","15","359162","0.0-7.0-2.0","5621.899999856949","Confidence judgement (first response)","","","-1","-1","","","","left","65","65","50","true","19","","","","","","","","","","","","","","","","","","","","","","","","","","",""
"","fixation","html-keyboard-response","16","360479","0.0-8.0-0.0","null","fixation","null","","-1","-1","","","","","","","","","","","","","","","","","","","","","","","","","","","","","","","","","","","",""
"","numerosity","html-keyboard-response","17","360987","0.0-8.0-1.0","null","[Dot display: left=300, right=250, diff=50]","null","","-1","-1","300","250","50","","","","","","","","","","","","","","","","","","","","","","","","","","","","","","","","",""
"","confidence_first","html-keyboard-response","18","364492","0.0-8.0-2.0","3502.2000000476837","Confidence judgement (first response)","","","-1","-1","","","","left","62","62","50","true","19","","","","","","","","","","","","","","","","","","","","","","","","","","",""
"","fixation","html-keyboard-response","19","365912","0.0-9.0-0.0","null","fixation","null","","-1","-1","","","","","","","","","","","","","","","","","","","","","","","","","","","","","","","","","","","",""
"","numerosity","html-keyboard-response","20","366420","0.0-9.0-1.0","null","[Dot display: left=300, right=250, diff=50]","null","","-1","-1","300","250","50","","","","","","","","","","","","","","","","","","","","","","","","","","","","","","","","",""
"","confidence_first","html-keyboard-response","21","369908","0.0-9.0-2.0","3485.800000190735","Confidence judgement (first response)","","","-1","-1","","","","left","90.75","90.75","50","true","19","","","","","","","","","","","","","","","","","","","","","","","","","","",""
"","fixation","html-keyboard-response","22","371389","0.0-10.0-0.0","null","fixation","null","","-1","-1","","","","","","","","","","","","","","","","","","","","","","","","","","","","","","","","","","","",""
"","numerosity","html-keyboard-response","23","371899","0.0-10.0-1.0","null","[Dot display: left=300, right=281, diff=19]","null","","-1","-1","300","281","19","","","","","","","","","","","","","","","","","","","","","","","","","","","","","","","","",""
"","confidence_first","html-keyboard-response","24","375893","0.0-10.0-2.0","3991.2000000476837","Confidence judgement (first response)","","","-1","-1","","","","left","86.5","86.5","50","true","16","","","","","","","","","","","","","","","","","","","","","","","","","","",""
"","fixation","html-keyboard-response","25","377363","0.0-11.0-0.0","null","fixation","null","","-1","-1","","","","","","","","","","","","","","","","","","","","","","","","","","","","","","","","","","","",""
"","numerosity","html-keyboard-response","26","377873","0.0-11.0-1.0","null","[Dot display: left=300, right=284, diff=16]","null","","-1","-1","300","284","16","","","","","","","","","","","","","","","","","","","","","","","","","","","","","","","","",""
"","confidence_first","html-keyboard-response","27","381346","0.0-11.0-2.0","3469.5","Confidence judgement (first response)","","","-1","-1","","","","right","85.25","50","85.25","false","27","","","","","","","","","","","","","","","","","","","","","","","","","","",""
"","fixation","html-keyboard-response","28","382593","0.0-12.0-0.0","null","fixation","null","","-1","-1","","","","","","","","","","","","","","","","","","","","","","","","","","","","","","","","","","","",""
"","numerosity","html-keyboard-response","29","383102","0.0-12.0-1.0","null","[Dot display: left=273, right=300, diff=27]","null","","-1","-1","273","300","27","","","","","","","","","","","","","","","","","","","","","","","","","","","","","","","","",""
"","confidence_first","html-keyboard-response","30","387225","0.0-12.0-2.0","4121.100000143051","Confidence judgement (first response)","","","-1","-1","","","","right","57.25","50","57.25","true","25","","","","","","","","","","","","","","","","","","","","","","","","","","",""
"","fixation","html-keyboard-response","31","388588","0.0-13.0-0.0","null","fixation","null","","-1","-1","","","","","","","","","","","","","","","","","","","","","","","","","","","","","","","","","","","",""
"","numerosity","html-keyboard-response","32","389097","0.0-13.0-1.0","null","[Dot display: left=275, right=300, diff=25]","null","","-1","-1","275","300","25","","","","","","","","","","","","","","","","","","","","","","","","","","","","","","","","",""
"","confidence_first","html-keyboard-response","33","393842","0.0-13.0-2.0","4742.899999856949","Confidence judgement (first response)","","","-1","-1","","","","right","58.5","50","58.5","true","23","","","","","","","","","","","","","","","","","","","","","","","","","","",""
"","fixation","html-keyboard-response","34","395065","0.0-14.0-0.0","null","fixation","null","","-1","-1","","","","","","","","","","","","","","","","","","","","","","","","","","","","","","","","","","","",""
"","numerosity","html-keyboard-response","35","395576","0.0-14.0-1.0","null","[Dot display: left=300, right=277, diff=23]","null","","-1","-1","300","277","23","","","","","","","","","","","","","","","","","","","","","","","","","","","","","","","","",""
"","confidence_first","html-keyboard-response","36","398644","0.0-14.0-2.0","3063.9000000953674","Confidence judgement (first response)","","","-1","-1","","","","left","69.25","69.25","50","true","22","","","","","","","","","","","","","","","","","","","","","","","","","","",""
"","fixation","html-keyboard-response","37","400038","0.0-15.0-0.0","null","fixation","null","","-1","-1","","","","","","","","","","","","","","","","","","","","","","","","","","","","","","","","","","","",""
"","numerosity","html-keyboard-response","38","400548","0.0-15.0-1.0","null","[Dot display: left=300, right=278, diff=22]","null","","-1","-1","300","278","22","","","","","","","","","","","","","","","","","","","","","","","","","","","","","","","","",""
"","confidence_first","html-keyboard-response","39","403460","0.0-15.0-2.0","2908.2999999523163","Confidence judgement (first response)","","","-1","-1","","","","left","67.75","67.75","50","true","21","","","","","","","","","","","","","","","","","","","","","","","","","","",""
"","fixation","html-keyboard-response","40","404861","0.0-16.0-0.0","null","fixation","null","","-1","-1","","","","","","","","","","","","","","","","","","","","","","","","","","","","","","","","","","","",""
"","numerosity","html-keyboard-response","41","405369","0.0-16.0-1.0","null","[Dot display: left=300, right=279, diff=21]","null","","-1","-1","300","279","21","","","","","","","","","","","","","","","","","","","","","","","","","","","","","","","","",""
"","confidence_first","html-keyboard-response","42","409294","0.0-16.0-2.0","3921","Confidence judgement (first response)","","","-1","-1","","","","left","77.75","77.75","50","true","20","","","","","","","","","","","","","","","","","","","","","","","","","","",""
"","fixation","html-keyboard-response","43","410736","0.0-17.0-0.0","null","fixation","null","","-1","-1","","","","","","","","","","","","","","","","","","","","","","","","","","","","","","","","","","","",""
"","numerosity","html-keyboard-response","44","411245","0.0-17.0-1.0","null","[Dot display: left=280, right=300, diff=20]","null","","-1","-1","280","300","20","","","","","","","","","","","","","","","","","","","","","","","","","","","","","","","","",""
"","confidence_first","html-keyboard-response","45","414527","0.0-17.0-2.0","3278.600000143051","Confidence judgement (first response)","","","-1","-1","","","","right","64.25","50","64.25","true","19","","","","","","","","","","","","","","","","","","","","","","","","","","",""
"","fixation","html-keyboard-response","46","415960","0.0-18.0-0.0","null","fixation","null","","-1","-1","","","","","","","","","","","","","","","","","","","","","","","","","","","","","","","","","","","",""
"","numerosity","html-keyboard-response","47","416469","0.0-18.0-1.0","null","[Dot display: left=281, right=300, diff=19]","null","","-1","-1","281","300","19","","","","","","","","","","","","","","","","","","","","","","","","","","","","","","","","",""
"","confidence_first","html-keyboard-response","48","419878","0.0-18.0-2.0","3404.5","Confidence judgement (first response)","","","-1","-1","","","","right","60.75","50","60.75","true","18","","","","","","","","","","","","","","","","","","","","","","","","","","",""
"","fixation","html-keyboard-response","49","421376","0.0-19.0-0.0","null","fixation","null","","-1","-1","","","","","","","","","","","","","","","","","","","","","","","","","","","","","","","","","","","",""
"","numerosity","html-keyboard-response","50","421884","0.0-19.0-1.0","null","[Dot display: left=282, right=300, diff=18]","null","","-1","-1","282","300","18","","","","","","","","","","","","","","","","","","","","","","","","","","","","","","","","",""
"","confidence_first","html-keyboard-response","51","425244","0.0-19.0-2.0","3356.300000190735","Confidence judgement (first response)","","","-1","-1","","","","left","70.5","70.5","50","false","22","","","","","","","","","","","","","","","","","","","","","","","","","","",""
"","fixation","html-keyboard-response","52","426486","0.0-20.0-0.0","null","fixation","null","","-1","-1","","","","","","","","","","","","","","","","","","","","","","","","","","","","","","","","","","","",""
"","numerosity","html-keyboard-response","53","426996","0.0-20.0-1.0","null","[Dot display: left=300, right=278, diff=22]","null","","-1","-1","300","278","22","","","","","","","","","","","","","","","","","","","","","","","","","","","","","","","","",""
"","confidence_first","html-keyboard-response","54","429694","0.0-20.0-2.0","2694","Confidence judgement (first response)","","","-1","-1","","","","right","61.25","50","61.25","false","26","","","","","","","","","","","","","","","","","","","","","","","","","","",""
"","fixation","html-keyboard-response","55","431149","0.0-21.0-0.0","null","fixation","null","","-1","-1","","","","","","","","","","","","","","","","","","","","","","","","","","","","","","","","","","","",""
"","numerosity","html-keyboard-response","56","431657","0.0-21.0-1.0","null","[Dot display: left=300, right=274, diff=26]","null","","-1","-1","300","274","26","","","","","","","","","","","","","","","","","","","","","","","","","","","","","","","","",""
"","confidence_first","html-keyboard-response","57","434311","0.0-21.0-2.0","2650.4000000953674","Confidence judgement (first response)","","","-1","-1","","","","left","70","70","50","true","25","","","","","","","","","","","","","","","","","","","","","","","","","","",""
"","fixation","html-keyboard-response","58","435608","0.0-22.0-0.0","null","fixation","null","","-1","-1","","","","","","","","","","","","","","","","","","","","","","","","","","","","","","","","","","","",""
"","numerosity","html-keyboard-response","59","436117","0.0-22.0-1.0","null","[Dot display: left=300, right=275, diff=25]","null","","-1","-1","300","275","25","","","","","","","","","","","","","","","","","","","","","","","","","","","","","","","","",""
"","confidence_first","html-keyboard-response","60","439194","0.0-22.0-2.0","3073.899999856949","Confidence judgement (first response)","","","-1","-1","","","","left","69.25","69.25","50","true","24","","","","","","","","","","","","","","","","","","","","","","","","","","",""
"","fixation","html-keyboard-response","61","440696","0.0-23.0-0.0","null","fixation","null","","-1","-1","","","","","","","","","","","","","","","","","","","","","","","","","","","","","","","","","","","",""
"","numerosity","html-keyboard-response","62","441206","0.0-23.0-1.0","null","[Dot display: left=276, right=300, diff=24]","null","","-1","-1","276","300","24","","","","","","","","","","","","","","","","","","","","","","","","","","","","","","","","",""
"","confidence_first","html-keyboard-response","63","444343","0.0-23.0-2.0","3134.5","Confidence judgement (first response)","","","-1","-1","","","","left","68","68","50","false","27","","","","","","","","","","","","","","","","","","","","","","","","","","",""
"","fixation","html-keyboard-response","64","445586","0.0-24.0-0.0","null","fixation","null","","-1","-1","","","","","","","","","","","","","","","","","","","","","","","","","","","","","","","","","","","",""
"","numerosity","html-keyboard-response","65","446096","0.0-24.0-1.0","null","[Dot display: left=300, right=273, diff=27]","null","","-1","-1","300","273","27","","","","","","","","","","","","","","","","","","","","","","","","","","","","","","","","",""
"","confidence_first","html-keyboard-response","66","448726","0.0-24.0-2.0","2627.5","Confidence judgement (first response)","","","-1","-1","","","","left","70.5","70.5","50","true","26","","","","","","","","","","","","","","","","","","","","","","","","","","",""
"","fixation","html-keyboard-response","67","450159","0.0-25.0-0.0","null","fixation","null","","-1","-1","","","","","","","","","","","","","","","","","","","","","","","","","","","","","","","","","","","",""
"","numerosity","html-keyboard-response","68","450666","0.0-25.0-1.0","null","[Dot display: left=274, right=300, diff=26]","null","","-1","-1","274","300","26","","","","","","","","","","","","","","","","","","","","","","","","","","","","","","","","",""
"","confidence_first","html-keyboard-response","69","453577","0.0-25.0-2.0","2907.7999999523163","Confidence judgement (first response)","","","-1","-1","","","","right","65","50","65","true","26","","","","","","","","","","","","","","","","","","","","","","","","","","",""
"","fixation","html-keyboard-response","70","455009","0.0-26.0-0.0","null","fixation","null","","-1","-1","","","","","","","","","","","","","","","","","","","","","","","","","","","","","","","","","","","",""
"","numerosity","html-keyboard-response","71","455520","0.0-26.0-1.0","null","[Dot display: left=274, right=300, diff=26]","null","","-1","-1","274","300","26","","","","","","","","","","","","","","","","","","","","","","","","","","","","","","","","",""
"","confidence_first","html-keyboard-response","72","460444","0.0-26.0-2.0","4920.900000095367","Confidence judgement (first response)","","","-1","-1","","","","right","52.25","50","52.25","true","25","","","","","","","","","","","","","","","","","","","","","","","","","","",""
"","fixation","html-keyboard-response","73","461925","0.0-27.0-0.0","null","fixation","null","","-1","-1","","","","","","","","","","","","","","","","","","","","","","","","","","","","","","","","","","","",""
"","numerosity","html-keyboard-response","74","462434","0.0-27.0-1.0","null","[Dot display: left=275, right=300, diff=25]","null","","-1","-1","275","300","25","","","","","","","","","","","","","","","","","","","","","","","","","","","","","","","","",""
"","confidence_first","html-keyboard-response","75","464858","0.0-27.0-2.0","2422","Confidence judgement (first response)","","","-1","-1","","","","right","57.25","50","57.25","true","24","","","","","","","","","","","","","","","","","","","","","","","","","","",""
"","fixation","html-keyboard-response","76","466229","0.0-28.0-0.0","null","fixation","null","","-1","-1","","","","","","","","","","","","","","","","","","","","","","","","","","","","","","","","","","","",""
"","numerosity","html-keyboard-response","77","466738","0.0-28.0-1.0","null","[Dot display: left=300, right=276, diff=24]","null","","-1","-1","300","276","24","","","","","","","","","","","","","","","","","","","","","","","","","","","","","","","","",""
"","confidence_first","html-keyboard-response","78","471160","0.0-28.0-2.0","4418.299999952316","Confidence judgement (first response)","","","-1","-1","","","","left","63.5","63.5","50","true","24","","","","","","","","","","","","","","","","","","","","","","","","","","",""
"","fixation","html-keyboard-response","79","472443","0.0-29.0-0.0","null","fixation","null","","-1","-1","","","","","","","","","","","","","","","","","","","","","","","","","","","","","","","","","","","",""
"","numerosity","html-keyboard-response","80","472950","0.0-29.0-1.0","null","[Dot display: left=300, right=276, diff=24]","null","","-1","-1","300","276","24","","","","","","","","","","","","","","","","","","","","","","","","","","","","","","","","",""
"","confidence_first","html-keyboard-response","81","475977","0.0-29.0-2.0","3024","Confidence judgement (first response)","","","-1","-1","","","","left","64.25","64.25","50","true","23","","","","","","","","","","","","","","","","","","","","","","","","","","",""
"","fixation","html-keyboard-response","82","477241","0.0-30.0-0.0","null","fixation","null","","-1","-1","","","","","","","","","","","","","","","","","","","","","","","","","","","","","","","","","","","",""
"","numerosity","html-keyboard-response","83","477750","0.0-30.0-1.0","null","[Dot display: left=300, right=277, diff=23]","null","","-1","-1","300","277","23","","","","","","","","","","","","","","","","","","","","","","","","","","","","","","","","",""
"","confidence_first","html-keyboard-response","84","485642","0.0-30.0-2.0","7889.099999904633","Confidence judgement (first response)","","","-1","-1","","","","left","60.5","60.5","50","true","23","","","","","","","","","","","","","","","","","","","","","","","","","","",""
"","fixation","html-keyboard-response","85","486981","0.0-31.0-0.0","null","fixation","null","","-1","-1","","","","","","","","","","","","","","","","","","","","","","","","","","","","","","","","","","","",""
"","numerosity","html-keyboard-response","86","487491","0.0-31.0-1.0","null","[Dot display: left=300, right=277, diff=23]","null","","-1","-1","300","277","23","","","","","","","","","","","","","","","","","","","","","","","","","","","","","","","","",""
"","confidence_first","html-keyboard-response","87","491876","0.0-31.0-2.0","4382.800000190735","Confidence judgement (first response)","","","-1","-1","","","","left","59","59","50","true","23","","","","","","","","","","","","","","","","","","","","","","","","","","",""
"","expInstructions","html-button-response","88","512343","0.0-32.0-0.0","20464","expInstruc","0","","","","","","","","","","","","","","","","","","","","","","","","","","","","","","","","","","","","","","",""
"","expInstructions","html-button-response","89","534543","0.0-32.0-0.1","22197","expInstruc","0","","","","","","","","","","","","","","","","","","","","","","","","","","","","","","","","","","","","","","",""
"","expInstructions","html-button-response","90","547560","0.0-32.0-0.2","13015","expInstruc","0","","","","","","","","","","","","","","","","","","","","","","","","","","","","","","","","","","","","","","",""
"","expInstructions","html-button-response","91","562207","0.0-32.0-0.3","14646","expInstruc","0","","","","","","","","","","","","","","","","","","","","","","","","","","","","","","","","","","","","","","",""
"","expInstructions","html-button-response","92","569977","0.0-32.0-0.4","7768","expInstruc","0","","","","","","","","","","","","","","","","","","","","","","","","","","","","","","","","","","","","","","",""
"","expInstructions","html-button-response","93","580993","0.0-32.0-0.5","11014","expInstruc","0","","","","","","","","","","","","","","","","","","","","","","","","","","","","","","","","","","","","","","",""
"","expInstructions","html-button-response","94","589927","0.0-32.0-0.6","8931","expInstruc","0","","","","","","","","","","","","","","","","","","","","","","","","","","","","","","","","","","","","","","",""
"","expInstructions","html-button-response","95","602060","0.0-32.0-0.7","12131","expInstruc","0","","","","","","","","","","","","","","","","","","","","","","","","","","","","","","","","","","","","","","",""
"","expInstructions","html-button-response","96","624459","0.0-32.0-0.8","22398","expInstruc","0","","","","","","","","","","","","","","","","","","","","","","","","","","","","","","","","","","","","","","",""
"","expInstructions","html-button-response","97","634643","0.0-32.0-0.9","10182","expInstruc","0","","","","","","","","","","","","","","","","","","","","","","","","","","","","","","","","","","","","","","",""
"","expInstructions","html-button-response","98","638291","0.0-32.0-0.10","3647","expInstruc","0","","","","","","","","","","","","","","","","","","","","","","","","","","","","","","","","","","","","","","",""
"","expInstructions","html-button-response","99","658577","0.0-32.0-0.11","20285","expInstruc","0","","","","","","","","","","","","","","","","","","","","","","","","","","","","","","","","","","","","","","",""
"","expInstructions","html-button-response","100","660610","0.0-32.0-0.12","2031","expInstruc","0","","","","","","","","","","","","","","","","","","","","","","","","","","","","","","","","","","","","","","",""
"","block_message","html-button-response","101","667093","0.0-33.0","6480","block message","0","","","","","","","","","","","","","1","","","","","","","","","","","","","","","","","","","","","","","","","",""
"","fixation","html-keyboard-response","102","668386","0.0-34.0-0.0","null","fixation","null","","-1","-1","","","","","","","","","","","","","","","","","","","","","","","","","","","","","","","","","","","",""
"","numerosity","html-keyboard-response","103","668895","0.0-34.0-1.0","null","[Dot display: left=300, right=277, diff=23]","null","","-1","-1","300","277","23","","","","","","","","","","","","","","","","","","","","","","","","","","","","","","","","",""
"","confidence_first","html-keyboard-response","104","674544","0.0-34.0-2.0","5644.399999856949","Confidence judgement (first response)","","","-1","-1","","","","left","84.5","84.5","50","true","22","","","","","","","","","","","","","","","","","","","","","","","","","","",""
"","advice_choice","html-button-response","105","677344","0.0-34.0-3.0-0.0","2796","[advice choice Y,N]","0","","-1","-1","","","","","","","","","","","","","","","","","","","","","","","","","","","","","","","","","","","",""
"","show_advice","html-keyboard-response","106","678148","0.0-34.0-3.0-1.0-0.0","null","[advice: left]","null","","-1","-1","","","","","","","","","","","left","","","","","","","","","","","","","","","","","","","","","","","","",""
"","confidence_second","html-keyboard-response","107","687342","0.0-34.0-6.0","9191.599999904633","Confidence judgment (second response)","","","-1","-1","","","","left","99.5","99.5","50","","","","","","","","","","","","","","","","","","","","","","","","","","","","",""
"","consolidated-trial-data","consolidated-trial-data","108","687345","0.0-35.0","null","consolidated-trial-data","null","","","","","","","","","","","","","","","0","0","0","300","277","23","left","84.5","true","5644.399999856949","1","yes","left","left","99.5","true","","9191.599999904633","","","","","","",""
"","fixation","html-keyboard-response","109","688792","0.0-36.0-0.0","null","fixation","null","","-1","-1","","","","","","","","","","","","","","","","","","","","","","","","","","","","","","","","","","","",""
"","numerosity","html-keyboard-response","110","689300","0.0-36.0-1.0","null","[Dot display: left=278, right=300, diff=22]","null","","-1","-1","278","300","22","","","","","","","","","","","","","","","","","","","","","","","","","","","","","","","","",""
"","confidence_first","html-keyboard-response","111","695144","0.0-36.0-2.0","5840.5","Confidence judgement (first response)","","","-1","-1","","","","right","59.75","50","59.75","true","22","","","","","","","","","","","","","","","","","","","","","","","","","","",""
"","forced_advice_display","html-button-response","112","697809","0.0-36.0-4.0-0.0","2663","forcedAdvice","0","","-1","-1","","","","","","","","","","","","","","","","","","","","","","","","","","","","","","","","","","","",""
"","show_advice","html-keyboard-response","113","698612","0.0-36.0-4.0-1.0","null","[advice: right]","null","","-1","-1","","","","","","","","","","","right","","","","","","","","","","","","","","","","","","","","","","","","",""
"","confidence_second","html-keyboard-response","114","712725","0.0-36.0-6.0","14110.699999809265","Confidence judgment (second response)","","","-1","-1","","","","right","99.5","50","99.5","","","","","","","","","","","","","","","","","","","","","","","","","","","","",""
"","consolidated-trial-data","consolidated-trial-data","115","712728","0.0-37.0","null","consolidated-trial-data","null","","","","","","","","","","","","","","","0","1","1","278","300","22","right","59.75","true","5840.5","2","yes","right","right","99.5","true","","14110.699999809265","","","","","","",""
"","fixation","html-keyboard-response","116","713965","0.0-38.0-0.0","null","fixation","null","","-1","-1","","","","","","","","","","","","","","","","","","","","","","","","","","","","","","","","","","","",""
"","numerosity","html-keyboard-response","117","714474","0.0-38.0-1.0","null","[Dot display: left=300, right=278, diff=22]","null","","-1","-1","300","278","22","","","","","","","","","","","","","","","","","","","","","","","","","","","","","","","","",""
"","confidence_first","html-keyboard-response","118","717977","0.0-38.0-2.0","3499.5","Confidence judgement (first response)","","","-1","-1","","","","left","74","74","50","true","22","","","","","","","","","","","","","","","","","","","","","","","","","","",""
"","advice_choice","html-button-response","119","720326","0.0-38.0-3.0-0.0","2346","[advice choice Y,N]","1","","-1","-1","","","","","","","","","","","","","","","","","","","","","","","","","","","","","","","","","","","",""
"","blank_screen","html-keyboard-response","120","721130","0.0-38.0-3.0-2.0-0.0","null","blank","null","","-1","-1","","","","","","","","","","","","","","","","","","","","","","","","","","","","","","","","","","","",""
"","confidence_second","html-keyboard-response","121","724226","0.0-38.0-6.0","3092.9000000953674","Confidence judgment (second response)","","","-1","-1","","","","left","74","74","50","","","","","","","","","","","","","","","","","","","","","","","","","","","","",""
"","consolidated-trial-data","consolidated-trial-data","122","724227","0.0-39.0","null","consolidated-trial-data","null","","","","","","","","","","","","","","","0","2","2","300","278","22","left","74","true","3499.5","1","no","right","left","74","false","","3092.9000000953674","","","","","","",""
"","fixation","html-keyboard-response","123","725706","0.0-40.0-0.0","null","fixation","null","","-1","-1","","","","","","","","","","","","","","","","","","","","","","","","","","","","","","","","","","","",""
"","numerosity","html-keyboard-response","124","726216","0.0-40.0-1.0","null","[Dot display: left=278, right=300, diff=22]","null","","-1","-1","278","300","22","","","","","","","","","","","","","","","","","","","","","","","","","","","","","","","","",""
"","confidence_first","html-keyboard-response","125","729785","0.0-40.0-2.0","3507.399999856949","Confidence judgement (first response)","","","-1","-1","","","","right","65","50","65","true","21","","","","","","","","","","","","","","","","","","","","","","","","","","",""
"","no_advice_display","html-button-response","126","732104","0.0-40.0-5.0-0.0","2314","noAdvice","0","","-1","-1","","","","","","","","","","","","","","","","","","","","","","","","","","","","","","","","","","","",""
"","blank_screen","html-keyboard-response","127","732908","0.0-40.0-5.0-1.0","null","blank","null","","-1","-1","","","","","","","","","","","","","","","","","","","","","","","","","","","","","","","","","","","",""
"","confidence_second","html-keyboard-response","128","735450","0.0-40.0-6.0","2540.600000143051","Confidence judgment (second response)","","","-1","-1","","","","right","65","50","65","","","","","","","","","","","","","","","","","","","","","","","","","","","","",""
"","consolidated-trial-data","consolidated-trial-data","129","735451","0.0-41.0","null","consolidated-trial-data","null","","","","","","","","","","","","","","","0","3","3","278","300","22","right","65","true","3507.399999856949","3","no","right","right","65","true","","2540.600000143051","","","","","","",""
"","fixation","html-keyboard-response","130","736741","0.0-42.0-0.0","null","fixation","null","","-1","-1","","","","","","","","","","","","","","","","","","","","","","","","","","","","","","","","","","","",""
"","numerosity","html-keyboard-response","131","737248","0.0-42.0-1.0","null","[Dot display: left=300, right=279, diff=21]","null","","-1","-1","300","279","21","","","","","","","","","","","","","","","","","","","","","","","","","","","","","","","","",""
"","confidence_first","html-keyboard-response","132","743136","0.0-42.0-2.0","5884.700000047684","Confidence judgement (first response)","","","-1","-1","","","","left","84.75","84.75","50","true","21","","","","","","","","","","","","","","","","","","","","","","","","","","",""
"","advice_choice","html-button-response","133","745035","0.0-42.0-3.0-0.0","1896","[advice choice Y,N]","0","","-1","-1","","","","","","","","","","","","","","","","","","","","","","","","","","","","","","","","","","","",""
"","show_advice","html-keyboard-response","134","745839","0.0-42.0-3.0-1.0-0.0","null","[advice: left]","null","","-1","-1","","","","","","","","","","","left","","","","","","","","","","","","","","","","","","","","","","","","",""
"","confidence_second","html-keyboard-response","135","750004","0.0-42.0-6.0","4160.899999856949","Confidence judgment (second response)","","","-1","-1","","","","left","98.75","98.75","50","","","","","","","","","","","","","","","","","","","","","","","","","","","","",""
"","consolidated-trial-data","consolidated-trial-data","136","750008","0.0-43.0","null","consolidated-trial-data","null","","","","","","","","","","","","","","","0","4","4","300","279","21","left","84.75","true","5884.700000047684","1","yes","left","left","98.75","true","","4160.899999856949","","","","","","",""
"","fixation","html-keyboard-response","137","751215","0.0-44.0-0.0","null","fixation","null","","-1","-1","","","","","","","","","","","","","","","","","","","","","","","","","","","","","","","","","","","",""
"","numerosity","html-keyboard-response","138","751725","0.0-44.0-1.0","null","[Dot display: left=300, right=279, diff=21]","null","","-1","-1","300","279","21","","","","","","","","","","","","","","","","","","","","","","","","","","","","","","","","",""
"","confidence_first","html-keyboard-response","139","759504","0.0-44.0-2.0","7775","Confidence judgement (first response)","","","-1","-1","","","","left","71.5","71.5","50","true","21","","","","","","","","","","","","","","","","","","","","","","","","","","",""
"","advice_choice","html-button-response","140","761420","0.0-44.0-3.0-0.0","1913","[advice choice Y,N]","0","","-1","-1","","","","","","","","","","","","","","","","","","","","","","","","","","","","","","","","","","","",""
"","show_advice","html-keyboard-response","141","762223","0.0-44.0-3.0-1.0-0.0","null","[advice: left]","null","","-1","-1","","","","","","","","","","","left","","","","","","","","","","","","","","","","","","","","","","","","",""
"","confidence_second","html-keyboard-response","142","766553","0.0-44.0-6.0","4326.400000095367","Confidence judgment (second response)","","","-1","-1","","","","left","98.75","98.75","50","","","","","","","","","","","","","","","","","","","","","","","","","","","","",""
"","consolidated-trial-data","consolidated-trial-data","143","766554","0.0-45.0","null","consolidated-trial-data","null","","","","","","","","","","","","","","","0","5","5","300","279","21","left","71.5","true","7775","1","yes","left","left","98.75","true","","4326.400000095367","","","","","","",""
"","fixation","html-keyboard-response","144","767808","0.0-46.0-0.0","null","fixation","null","","-1","-1","","","","","","","","","","","","","","","","","","","","","","","","","","","","","","","","","","","",""
"","numerosity","html-keyboard-response","145","768318","0.0-46.0-1.0","null","[Dot display: left=279, right=300, diff=21]","null","","-1","-1","279","300","21","","","","","","","","","","","","","","","","","","","","","","","","","","","","","","","","",""
"","confidence_first","html-keyboard-response","146","771787","0.0-46.0-2.0","3464.9000000953674","Confidence judgement (first response)","","","-1","-1","","","","right","59.25","50","59.25","true","20","","","","","","","","","","","","","","","","","","","","","","","","","","",""
"","no_advice_display","html-button-response","147","773370","0.0-46.0-5.0-0.0","1581","noAdvice","0","","-1","-1","","","","","","","","","","","","","","","","","","","","","","","","","","","","","","","","","","","",""
"","blank_screen","html-keyboard-response","148","774173","0.0-46.0-5.0-1.0","null","blank","null","","-1","-1","","","","","","","","","","","","","","","","","","","","","","","","","","","","","","","","","","","",""
"","confidence_second","html-keyboard-response","149","775936","0.0-46.0-6.0","1760.5999999046326","Confidence judgment (second response)","","","-1","-1","","","","right","59.25","50","59.25","","","","","","","","","","","","","","","","","","","","","","","","","","","","",""
"","consolidated-trial-data","consolidated-trial-data","150","775938","0.0-47.0","null","consolidated-trial-data","null","","","","","","","","","","","","","","","0","6","6","279","300","21","right","59.25","true","3464.9000000953674","3","yes","left","right","59.25","false","","1760.5999999046326","","","","","","",""
"","attncheck","html-button-response","151","782436","0.0-48.0","6496","attncheck","0","","","","","","","","","","","","","","","","","","","","","","","","","","","","","","","","","true","Stop","","","","",""
"","fixation","html-keyboard-response","152","783673","0.0-49.0-0.0","null","fixation","null","","-1","-1","","","","","","","","","","","","","","","","","","","","","","","","","","","","","","","","","","","",""
"","numerosity","html-keyboard-response","153","784180","0.0-49.0-1.0","null","[Dot display: left=280, right=300, diff=20]","null","","-1","-1","280","300","20","","","","","","","","","","","","","","","","","","","","","","","","","","","","","","","","",""
"","confidence_first","html-keyboard-response","154","793120","0.0-49.0-2.0","8936","Confidence judgement (first response)","","","-1","-1","","","","left","66","66","50","false","21","","","","","","","","","","","","","","","","","","","","","","","","","","",""
"","no_advice_display","html-button-response","155","794901","0.0-49.0-5.0-0.0","1780","noAdvice","0","","-1","-1","","","","","","","","","","","","","","","","","","","","","","","","","","","","","","","","","","","",""
"","blank_screen","html-keyboard-response","156","795704","0.0-49.0-5.0-1.0","null","blank","null","","-1","-1","","","","","","","","","","","","","","","","","","","","","","","","","","","","","","","","","","","",""
"","confidence_second","html-keyboard-response","157","797637","0.0-49.0-6.0","1930","Confidence judgment (second response)","","","-1","-1","","","","left","66","66","50","","","","","","","","","","","","","","","","","","","","","","","","","","","","",""
"","consolidated-trial-data","consolidated-trial-data","158","797639","0.0-50.0","null","consolidated-trial-data","null","","","","","","","","","","","","","","","0","7","7","280","300","20","left","66","false","8936","3","yes","left","left","66","false","","1930","","","","","","",""
"","fixation","html-keyboard-response","159","799032","0.0-51.0-0.0","null","fixation","null","","-1","-1","","","","","","","","","","","","","","","","","","","","","","","","","","","","","","","","","","","",""
"","numerosity","html-keyboard-response","160","799541","0.0-51.0-1.0","null","[Dot display: left=279, right=300, diff=21]","null","","-1","-1","279","300","21","","","","","","","","","","","","","","","","","","","","","","","","","","","","","","","","",""
"","confidence_first","html-keyboard-response","161","801985","0.0-51.0-2.0","2441.5999999046326","Confidence judgement (first response)","","","-1","-1","","","","right","63.75","50","63.75","true","21","","","","","","","","","","","","","","","","","","","","","","","","","","",""
"","advice_choice","html-button-response","162","805604","0.0-51.0-3.0-0.0","3616","[advice choice Y,N]","0","","-1","-1","","","","","","","","","","","","","","","","","","","","","","","","","","","","","","","","","","","",""
"","show_advice","html-keyboard-response","163","806408","0.0-51.0-3.0-1.0-0.0","null","[advice: right]","null","","-1","-1","","","","","","","","","","","right","","","","","","","","","","","","","","","","","","","","","","","","",""
"","confidence_second","html-keyboard-response","164","813603","0.0-51.0-6.0","7192.5","Confidence judgment (second response)","","","-1","-1","","","","right","99","50","99","","","","","","","","","","","","","","","","","","","","","","","","","","","","",""
"","consolidated-trial-data","consolidated-trial-data","165","813605","0.0-52.0","null","consolidated-trial-data","null","","","","","","","","","","","","","","","0","8","8","279","300","21","right","63.75","true","2441.5999999046326","1","yes","right","right","99","true","","7192.5","","","","","","",""
"","attncheck","html-button-response","166","819354","0.0-53.0","5746","attncheck","0","","","","","","","","","","","","","","","","","","","","","","","","","","","","","","","","","true","Stop","","","","",""
"","fixation","html-keyboard-response","167","820620","0.0-54.0-0.0","null","fixation","null","","-1","-1","","","","","","","","","","","","","","","","","","","","","","","","","","","","","","","","","","","",""
"","numerosity","html-keyboard-response","168","821129","0.0-54.0-1.0","null","[Dot display: left=300, right=279, diff=21]","null","","-1","-1","300","279","21","","","","","","","","","","","","","","","","","","","","","","","","","","","","","","","","",""
"","confidence_first","html-keyboard-response","169","825971","0.0-54.0-2.0","4838.299999952316","Confidence judgement (first response)","","","-1","-1","","","","left","68.25","68.25","50","true","21","","","","","","","","","","","","","","","","","","","","","","","","","","",""
"","no_advice_display","html-button-response","170","827320","0.0-54.0-5.0-0.0","1347","noAdvice","0","","-1","-1","","","","","","","","","","","","","","","","","","","","","","","","","","","","","","","","","","","",""
"","blank_screen","html-keyboard-response","171","828124","0.0-54.0-5.0-1.0","null","blank","null","","-1","-1","","","","","","","","","","","","","","","","","","","","","","","","","","","","","","","","","","","",""
"","confidence_second","html-keyboard-response","172","829670","0.0-54.0-6.0","1543","Confidence judgment (second response)","","","-1","-1","","","","left","68.25","68.25","50","","","","","","","","","","","","","","","","","","","","","","","","","","","","",""
"","consolidated-trial-data","consolidated-trial-data","173","829673","0.0-55.0","null","consolidated-trial-data","null","","","","","","","","","","","","","","","0","9","9","300","279","21","left","68.25","true","4838.299999952316","3","yes","right","left","68.25","false","","1543","","","","","","",""
"","attncheck","html-button-response","174","833170","0.0-56.0","3495","attncheck","2","","","","","","","","","","","","","","","","","","","","","","","","","","","","","","","","","true","Next","","","","",""
"","fixation","html-keyboard-response","175","834476","0.0-57.0-0.0","null","fixation","null","","-1","-1","","","","","","","","","","","","","","","","","","","","","","","","","","","","","","","","","","","",""
"","numerosity","html-keyboard-response","176","834985","0.0-57.0-1.0","null","[Dot display: left=300, right=279, diff=21]","null","","-1","-1","300","279","21","","","","","","","","","","","","","","","","","","","","","","","","","","","","","","","","",""
"","confidence_first","html-keyboard-response","177","839288","0.0-57.0-2.0","4299.399999856949","Confidence judgement (first response)","","","-1","-1","","","","left","65","65","50","true","21","","","","","","","","","","","","","","","","","","","","","","","","","","",""
"","forced_advice_display","html-button-response","178","841337","0.0-57.0-4.0-0.0","2047","forcedAdvice","0","","-1","-1","","","","","","","","","","","","","","","","","","","","","","","","","","","","","","","","","","","",""
"","show_advice","html-keyboard-response","179","842141","0.0-57.0-4.0-1.0","null","[advice: left]","null","","-1","-1","","","","","","","","","","","left","","","","","","","","","","","","","","","","","","","","","","","","",""
"","confidence_second","html-keyboard-response","180","848804","0.0-57.0-6.0","6659.799999952316","Confidence judgment (second response)","","","-1","-1","","","","left","100","100","50","","","","","","","","","","","","","","","","","","","","","","","","","","","","",""
"","consolidated-trial-data","consolidated-trial-data","181","848807","0.0-58.0","null","consolidated-trial-data","null","","","","","","","","","","","","","","","0","10","10","300","279","21","left","65","true","4299.399999856949","2","yes","left","left","100","true","","6659.799999952316","","","","","","",""
"","attncheck","html-button-response","182","851271","0.0-59.0","2462","attncheck","0","","","","","","","","","","","","","","","","","","","","","","","","","","","","","","","","","true","Stop","","","","",""
"","fixation","html-keyboard-response","183","852692","0.0-60.0-0.0","null","fixation","null","","-1","-1","","","","","","","","","","","","","","","","","","","","","","","","","","","","","","","","","","","",""
"","numerosity","html-keyboard-response","184","853202","0.0-60.0-1.0","null","[Dot display: left=300, right=279, diff=21]","null","","-1","-1","300","279","21","","","","","","","","","","","","","","","","","","","","","","","","","","","","","","","","",""
"","confidence_first","html-keyboard-response","185","856638","0.0-60.0-2.0","3432.600000143051","Confidence judgement (first response)","","","-1","-1","","","","left","68.25","68.25","50","true","21","","","","","","","","","","","","","","","","","","","","","","","","","","",""
"","forced_advice_display","html-button-response","186","858386","0.0-60.0-4.0-0.0","1746","forcedAdvice","0","","-1","-1","","","","","","","","","","","","","","","","","","","","","","","","","","","","","","","","","","","",""
"","show_advice","html-keyboard-response","187","859189","0.0-60.0-4.0-1.0","null","[advice: left]","null","","-1","-1","","","","","","","","","","","left","","","","","","","","","","","","","","","","","","","","","","","","",""
"","confidence_second","html-keyboard-response","188","864852","0.0-60.0-6.0","5661.100000143051","Confidence judgment (second response)","","","-1","-1","","","","left","99.75","99.75","50","","","","","","","","","","","","","","","","","","","","","","","","","","","","",""
"","consolidated-trial-data","consolidated-trial-data","189","864853","0.0-61.0","null","consolidated-trial-data","null","","","","","","","","","","","","","","","0","11","11","300","279","21","left","68.25","true","3432.600000143051","2","yes","left","left","99.75","true","","5661.100000143051","","","","","","",""
"","fixation","html-keyboard-response","190","866099","0.0-62.0-0.0","null","fixation","null","","-1","-1","","","","","","","","","","","","","","","","","","","","","","","","","","","","","","","","","","","",""
"","numerosity","html-keyboard-response","191","866607","0.0-62.0-1.0","null","[Dot display: left=300, right=279, diff=21]","null","","-1","-1","300","279","21","","","","","","","","","","","","","","","","","","","","","","","","","","","","","","","","",""
"","confidence_first","html-keyboard-response","192","869989","0.0-62.0-2.0","3378","Confidence judgement (first response)","","","-1","-1","","","","right","62.25","50","62.25","false","21","","","","","","","","","","","","","","","","","","","","","","","","","","",""
"","forced_advice_display","html-button-response","193","871437","0.0-62.0-4.0-0.0","1446","forcedAdvice","0","","-1","-1","","","","","","","","","","","","","","","","","","","","","","","","","","","","","","","","","","","",""
"","show_advice","html-keyboard-response","194","872242","0.0-62.0-4.0-1.0","null","[advice: left]","null","","-1","-1","","","","","","","","","","","left","","","","","","","","","","","","","","","","","","","","","","","","",""
"","confidence_second","html-keyboard-response","195","877836","0.0-62.0-6.0","5592.200000047684","Confidence judgment (second response)","","","-1","-1","","","","left","99.5","99.5","50","","","","","","","","","","","","","","","","","","","","","","","","","","","","",""
"","consolidated-trial-data","consolidated-trial-data","196","877838","0.0-63.0","null","consolidated-trial-data","null","","","","","","","","","","","","","","","0","12","12","300","279","21","right","62.25","false","3378","2","yes","left","left","99.5","true","","5592.200000047684","","","","","","",""
"","fixation","html-keyboard-response","197","879192","0.0-64.0-0.0","null","fixation","null","","-1","-1","","","","","","","","","","","","","","","","","","","","","","","","","","","","","","","","","","","",""
"","numerosity","html-keyboard-response","198","879700","0.0-64.0-1.0","null","[Dot display: left=300, right=279, diff=21]","null","","-1","-1","300","279","21","","","","","","","","","","","","","","","","","","","","","","","","","","","","","","","","",""
"","confidence_first","html-keyboard-response","199","882672","0.0-64.0-2.0","2968.4000000953674","Confidence judgement (first response)","","","-1","-1","","","","left","72.25","72.25","50","true","21","","","","","","","","","","","","","","","","","","","","","","","","","","",""
"","no_advice_display","html-button-response","200","884170","0.0-64.0-5.0-0.0","1497","noAdvice","0","","-1","-1","","","","","","","","","","","","","","","","","","","","","","","","","","","","","","","","","","","",""
"","blank_screen","html-keyboard-response","201","884974","0.0-64.0-5.0-1.0","null","blank","null","","-1","-1","","","","","","","","","","","","","","","","","","","","","","","","","","","","","","","","","","","",""
"","confidence_second","html-keyboard-response","202","886654","0.0-64.0-6.0","1677.2999999523163","Confidence judgment (second response)","","","-1","-1","","","","left","72.25","72.25","50","","","","","","","","","","","","","","","","","","","","","","","","","","","","",""
"","consolidated-trial-data","consolidated-trial-data","203","886656","0.0-65.0","null","consolidated-trial-data","null","","","","","","","","","","","","","","","0","13","13","300","279","21","left","72.25","true","2968.4000000953674","3","yes","left","left","72.25","true","","1677.2999999523163","","","","","","",""
"","fixation","html-keyboard-response","204","887951","0.0-66.0-0.0","null","fixation","null","","-1","-1","","","","","","","","","","","","","","","","","","","","","","","","","","","","","","","","","","","",""
"","numerosity","html-keyboard-response","205","888459","0.0-66.0-1.0","null","[Dot display: left=300, right=279, diff=21]","null","","-1","-1","300","279","21","","","","","","","","","","","","","","","","","","","","","","","","","","","","","","","","",""
"","confidence_first","html-keyboard-response","206","891105","0.0-66.0-2.0","2642.9000000953674","Confidence judgement (first response)","","","-1","-1","","","","left","70.75","70.75","50","true","21","","","","","","","","","","","","","","","","","","","","","","","","","","",""
"","forced_advice_display","html-button-response","207","892472","0.0-66.0-4.0-0.0","1364","forcedAdvice","0","","-1","-1","","","","","","","","","","","","","","","","","","","","","","","","","","","","","","","","","","","",""
"","show_advice","html-keyboard-response","208","893276","0.0-66.0-4.0-1.0","null","[advice: left]","null","","-1","-1","","","","","","","","","","","left","","","","","","","","","","","","","","","","","","","","","","","","",""
"","confidence_second","html-keyboard-response","209","898088","0.0-66.0-6.0","4809.100000143051","Confidence judgment (second response)","","","-1","-1","","","","left","100","100","50","","","","","","","","","","","","","","","","","","","","","","","","","","","","",""
"","consolidated-trial-data","consolidated-trial-data","210","898090","0.0-67.0","null","consolidated-trial-data","null","","","","","","","","","","","","","","","0","14","14","300","279","21","left","70.75","true","2642.9000000953674","2","yes","left","left","100","true","","4809.100000143051","","","","","","",""
"","block_message","html-button-response","211","909789","0.0-68.0","11696","block message","0","","","","","","","","","","","","","2","","","","","","","","","","","","","","","","","","","","","","","","","",""
"","fixation","html-keyboard-response","212","911243","0.0-69.0-0.0","null","fixation","null","","-1","-1","","","","","","","","","","","","","","","","","","","","","","","","","","","","","","","","","","","",""
"","numerosity","html-keyboard-response","213","911752","0.0-69.0-1.0","null","[Dot display: left=279, right=300, diff=21]","null","","-1","-1","279","300","21","","","","","","","","","","","","","","","","","","","","","","","","","","","","","","","","",""
"","confidence_first","html-keyboard-response","214","914722","0.0-69.0-2.0","2966.899999856949","Confidence judgement (first response)","","","-1","-1","","","","right","63.75","50","63.75","true","21","","","","","","","","","","","","","","","","","","","","","","","","","","",""
"","advice_choice","html-button-response","215","918122","0.0-69.0-3.0-0.0","3397","[advice choice Y,N]","0","","-1","-1","","","","","","","","","","","","","","","","","","","","","","","","","","","","","","","","","","","",""
"","show_advice","html-keyboard-response","216","918926","0.0-69.0-3.0-1.0-0.0","null","[advice: left]","null","","-1","-1","","","","","","","","","","","left","","","","","","","","","","","","","","","","","","","","","","","","",""
"","confidence_second","html-keyboard-response","217","922272","0.0-69.0-6.0","3342.7000000476837","Confidence judgment (second response)","","","-1","-1","","","","left","99.5","99.5","50","","","","","","","","","","","","","","","","","","","","","","","","","","","","",""
"","consolidated-trial-data","consolidated-trial-data","218","922274","0.0-70.0","null","consolidated-trial-data","null","","","","","","","","","","","","","","","1","0","15","279","300","21","right","63.75","true","2966.899999856949","1","yes","left","left","99.5","false","","3342.7000000476837","","","","","","",""
"","fixation","html-keyboard-response","219","923553","0.0-71.0-0.0","null","fixation","null","","-1","-1","","","","","","","","","","","","","","","","","","","","","","","","","","","","","","","","","","","",""
"","numerosity","html-keyboard-response","220","924063","0.0-71.0-1.0","null","[Dot display: left=300, right=279, diff=21]","null","","-1","-1","300","279","21","","","","","","","","","","","","","","","","","","","","","","","","","","","","","","","","",""
"","confidence_first","html-keyboard-response","221","927355","0.0-71.0-2.0","3289.199999809265","Confidence judgement (first response)","","","-1","-1","","","","left","64.5","64.5","50","true","21","","","","","","","","","","","","","","","","","","","","","","","","","","",""
"","forced_advice_display","html-button-response","222","928688","0.0-71.0-4.0-0.0","1330","forcedAdvice","0","","-1","-1","","","","","","","","","","","","","","","","","","","","","","","","","","","","","","","","","","","",""
"","show_advice","html-keyboard-response","223","929491","0.0-71.0-4.0-1.0","null","[advice: left]","null","","-1","-1","","","","","","","","","","","left","","","","","","","","","","","","","","","","","","","","","","","","",""
"","confidence_second","html-keyboard-response","224","932705","0.0-71.0-6.0","3212.5999999046326","Confidence judgment (second response)","","","-1","-1","","","","left","99.75","99.75","50","","","","","","","","","","","","","","","","","","","","","","","","","","","","",""
"","consolidated-trial-data","consolidated-trial-data","225","932707","0.0-72.0","null","consolidated-trial-data","null","","","","","","","","","","","","","","","1","1","16","300","279","21","left","64.5","true","3289.199999809265","2","yes","left","left","99.75","true","","3212.5999999046326","","","","","","",""
"","fixation","html-keyboard-response","226","933935","0.0-73.0-0.0","null","fixation","null","","-1","-1","","","","","","","","","","","","","","","","","","","","","","","","","","","","","","","","","","","",""
"","numerosity","html-keyboard-response","227","934442","0.0-73.0-1.0","null","[Dot display: left=279, right=300, diff=21]","null","","-1","-1","279","300","21","","","","","","","","","","","","","","","","","","","","","","","","","","","","","","","","",""
"","confidence_first","html-keyboard-response","228","937107","0.0-73.0-2.0","2660.600000143051","Confidence judgement (first response)","","","-1","-1","","","","right","93.25","50","93.25","true","21","","","","","","","","","","","","","","","","","","","","","","","","","","",""
"","advice_choice","html-button-response","229","939055","0.0-73.0-3.0-0.0","1946","[advice choice Y,N]","1","","-1","-1","","","","","","","","","","","","","","","","","","","","","","","","","","","","","","","","","","","",""
"","blank_screen","html-keyboard-response","230","939859","0.0-73.0-3.0-2.0-0.0","null","blank","null","","-1","-1","","","","","","","","","","","","","","","","","","","","","","","","","","","","","","","","","","","",""
"","confidence_second","html-keyboard-response","231","941854","0.0-73.0-6.0","1992.9000000953674","Confidence judgment (second response)","","","-1","-1","","","","right","93.25","50","93.25","","","","","","","","","","","","","","","","","","","","","","","","","","","","",""
"","consolidated-trial-data","consolidated-trial-data","232","941856","0.0-74.0","null","consolidated-trial-data","null","","","","","","","","","","","","","","","1","2","17","279","300","21","right","93.25","true","2660.600000143051","1","no","left","right","93.25","false","","1992.9000000953674","","","","","","",""
"","fixation","html-keyboard-response","233","943360","0.0-75.0-0.0","null","fixation","null","","-1","-1","","","","","","","","","","","","","","","","","","","","","","","","","","","","","","","","","","","",""
"","numerosity","html-keyboard-response","234","943869","0.0-75.0-1.0","null","[Dot display: left=300, right=279, diff=21]","null","","-1","-1","300","279","21","","","","","","","","","","","","","","","","","","","","","","","","","","","","","","","","",""
"","confidence_first","html-keyboard-response","235","947090","0.0-75.0-2.0","3217.899999856949","Confidence judgement (first response)","","","-1","-1","","","","left","91.75","91.75","50","true","20","","","","","","","","","","","","","","","","","","","","","","","","","","",""
"","no_advice_display","html-button-response","236","948504","0.0-75.0-5.0-0.0","1412","noAdvice","0","","-1","-1","","","","","","","","","","","","","","","","","","","","","","","","","","","","","","","","","","","",""
"","blank_screen","html-keyboard-response","237","949307","0.0-75.0-5.0-1.0","null","blank","null","","-1","-1","","","","","","","","","","","","","","","","","","","","","","","","","","","","","","","","","","","",""
"","confidence_second","html-keyboard-response","238","950839","0.0-75.0-6.0","1528.8000001907349","Confidence judgment (second response)","","","-1","-1","","","","left","91.75","91.75","50","","","","","","","","","","","","","","","","","","","","","","","","","","","","",""
"","consolidated-trial-data","consolidated-trial-data","239","950841","0.0-76.0","null","consolidated-trial-data","null","","","","","","","","","","","","","","","1","3","18","300","279","21","left","91.75","true","3217.899999856949","3","no","left","left","91.75","true","","1528.8000001907349","","","","","","",""
"","fixation","html-keyboard-response","240","952112","0.0-77.0-0.0","null","fixation","null","","-1","-1","","","","","","","","","","","","","","","","","","","","","","","","","","","","","","","","","","","",""
"","numerosity","html-keyboard-response","241","952622","0.0-77.0-1.0","null","[Dot display: left=300, right=280, diff=20]","null","","-1","-1","300","280","20","","","","","","","","","","","","","","","","","","","","","","","","","","","","","","","","",""
"","confidence_first","html-keyboard-response","242","955058","0.0-77.0-2.0","2432.0999999046326","Confidence judgement (first response)","","","-1","-1","","","","right","71.5","50","71.5","false","21","","","","","","","","","","","","","","","","","","","","","","","","","","",""
"","advice_choice","html-button-response","243","956689","0.0-77.0-3.0-0.0","1629","[advice choice Y,N]","0","","-1","-1","","","","","","","","","","","","","","","","","","","","","","","","","","","","","","","","","","","",""
"","show_advice","html-keyboard-response","244","957493","0.0-77.0-3.0-1.0-0.0","null","[advice: left]","null","","-1","-1","","","","","","","","","","","left","","","","","","","","","","","","","","","","","","","","","","","","",""
"","confidence_second","html-keyboard-response","245","961072","0.0-77.0-6.0","3575.5999999046326","Confidence judgment (second response)","","","-1","-1","","","","left","99.25","99.25","50","","","","","","","","","","","","","","","","","","","","","","","","","","","","",""
"","consolidated-trial-data","consolidated-trial-data","246","961074","0.0-78.0","null","consolidated-trial-data","null","","","","","","","","","","","","","","","1","4","19","300","280","20","right","71.5","false","2432.0999999046326","1","yes","left","left","99.25","true","","3575.5999999046326","","","","","","",""
"","fixation","html-keyboard-response","247","962468","0.0-79.0-0.0","null","fixation","null","","-1","-1","","","","","","","","","","","","","","","","","","","","","","","","","","","","","","","","","","","",""
"","numerosity","html-keyboard-response","248","962976","0.0-79.0-1.0","null","[Dot display: left=279, right=300, diff=21]","null","","-1","-1","279","300","21","","","","","","","","","","","","","","","","","","","","","","","","","","","","","","","","",""
"","confidence_first","html-keyboard-response","249","966639","0.0-79.0-2.0","3659.4000000953674","Confidence judgement (first response)","","","-1","-1","","","","right","64.25","50","64.25","true","21","","","","","","","","","","","","","","","","","","","","","","","","","","",""
"","advice_choice","html-button-response","250","967973","0.0-79.0-3.0-0.0","1332","[advice choice Y,N]","0","","-1","-1","","","","","","","","","","","","","","","","","","","","","","","","","","","","","","","","","","","",""
"","show_advice","html-keyboard-response","251","968777","0.0-79.0-3.0-1.0-0.0","null","[advice: left]","null","","-1","-1","","","","","","","","","","","left","","","","","","","","","","","","","","","","","","","","","","","","",""
"","confidence_second","html-keyboard-response","252","971622","0.0-79.0-6.0","2842.4000000953674","Confidence judgment (second response)","","","-1","-1","","","","left","99.25","99.25","50","","","","","","","","","","","","","","","","","","","","","","","","","","","","",""
"","consolidated-trial-data","consolidated-trial-data","253","971625","0.0-80.0","null","consolidated-trial-data","null","","","","","","","","","","","","","","","1","5","20","279","300","21","right","64.25","true","3659.4000000953674","1","yes","left","left","99.25","false","","2842.4000000953674","","","","","","",""
"","fixation","html-keyboard-response","254","973009","0.0-81.0-0.0","null","fixation","null","","-1","-1","","","","","","","","","","","","","","","","","","","","","","","","","","","","","","","","","","","",""
"","numerosity","html-keyboard-response","255","973518","0.0-81.0-1.0","null","[Dot display: left=279, right=300, diff=21]","null","","-1","-1","279","300","21","","","","","","","","","","","","","","","","","","","","","","","","","","","","","","","","",""
"","confidence_first","html-keyboard-response","256","976423","0.0-81.0-2.0","2902.100000143051","Confidence judgement (first response)","","","-1","-1","","","","right","65.25","50","65.25","true","21","","","","","","","","","","","","","","","","","","","","","","","","","","",""
"","no_advice_display","html-button-response","257","977822","0.0-81.0-5.0-0.0","1396","noAdvice","0","","-1","-1","","","","","","","","","","","","","","","","","","","","","","","","","","","","","","","","","","","",""
"","blank_screen","html-keyboard-response","258","978625","0.0-81.0-5.0-1.0","null","blank","null","","-1","-1","","","","","","","","","","","","","","","","","","","","","","","","","","","","","","","","","","","",""
"","confidence_second","html-keyboard-response","259","979939","0.0-81.0-6.0","1311","Confidence judgment (second response)","","","-1","-1","","","","right","65.25","50","65.25","","","","","","","","","","","","","","","","","","","","","","","","","","","","",""
"","consolidated-trial-data","consolidated-trial-data","260","979941","0.0-82.0","null","consolidated-trial-data","null","","","","","","","","","","","","","","","1","6","21","279","300","21","right","65.25","true","2902.100000143051","3","yes","left","right","65.25","false","","1311","","","","","","",""
"","fixation","html-keyboard-response","261","981209","0.0-83.0-0.0","null","fixation","null","","-1","-1","","","","","","","","","","","","","","","","","","","","","","","","","","","","","","","","","","","",""
"","numerosity","html-keyboard-response","262","981718","0.0-83.0-1.0","null","[Dot display: left=279, right=300, diff=21]","null","","-1","-1","279","300","21","","","","","","","","","","","","","","","","","","","","","","","","","","","","","","","","",""
"","confidence_first","html-keyboard-response","263","984224","0.0-83.0-2.0","2502.7000000476837","Confidence judgement (first response)","","","-1","-1","","","","left","71.5","71.5","50","false","21","","","","","","","","","","","","","","","","","","","","","","","","","","",""
"","no_advice_display","html-button-response","264","985689","0.0-83.0-5.0-0.0","1463","noAdvice","0","","-1","-1","","","","","","","","","","","","","","","","","","","","","","","","","","","","","","","","","","","",""
"","blank_screen","html-keyboard-response","265","986493","0.0-83.0-5.0-1.0","null","blank","null","","-1","-1","","","","","","","","","","","","","","","","","","","","","","","","","","","","","","","","","","","",""
"","confidence_second","html-keyboard-response","266","987872","0.0-83.0-6.0","1376.2000000476837","Confidence judgment (second response)","","","-1","-1","","","","left","71.5","71.5","50","","","","","","","","","","","","","","","","","","","","","","","","","","","","",""
"","consolidated-trial-data","consolidated-trial-data","267","987874","0.0-84.0","null","consolidated-trial-data","null","","","","","","","","","","","","","","","1","7","22","279","300","21","left","71.5","false","2502.7000000476837","3","yes","left","left","71.5","false","","1376.2000000476837","","","","","","",""
"","fixation","html-keyboard-response","268","989256","0.0-85.0-0.0","null","fixation","null","","-1","-1","","","","","","","","","","","","","","","","","","","","","","","","","","","","","","","","","","","",""
"","numerosity","html-keyboard-response","269","989765","0.0-85.0-1.0","null","[Dot display: left=300, right=279, diff=21]","null","","-1","-1","300","279","21","","","","","","","","","","","","","","","","","","","","","","","","","","","","","","","","",""
"","confidence_first","html-keyboard-response","270","992373","0.0-85.0-2.0","2604.7000000476837","Confidence judgement (first response)","","","-1","-1","","","","right","70","50","70","false","22","","","","","","","","","","","","","","","","","","","","","","","","","","",""
"","advice_choice","html-button-response","271","994207","0.0-85.0-3.0-0.0","1831","[advice choice Y,N]","0","","-1","-1","","","","","","","","","","","","","","","","","","","","","","","","","","","","","","","","","","","",""
"","show_advice","html-keyboard-response","272","995011","0.0-85.0-3.0-1.0-0.0","null","[advice: left]","null","","-1","-1","","","","","","","","","","","left","","","","","","","","","","","","","","","","","","","","","","","","",""
"","confidence_second","html-keyboard-response","273","997572","0.0-85.0-6.0","2558.2000000476837","Confidence judgment (second response)","","","-1","-1","","","","left","99.5","99.5","50","","","","","","","","","","","","","","","","","","","","","","","","","","","","",""
"","consolidated-trial-data","consolidated-trial-data","274","997574","0.0-86.0","null","consolidated-trial-data","null","","","","","","","","","","","","","","","1","8","23","300","279","21","right","70","false","2604.7000000476837","1","yes","left","left","99.5","true","","2558.2000000476837","","","","","","",""
"","fixation","html-keyboard-response","275","998891","0.0-87.0-0.0","null","fixation","null","","-1","-1","","","","","","","","","","","","","","","","","","","","","","","","","","","","","","","","","","","",""
"","numerosity","html-keyboard-response","276","999400","0.0-87.0-1.0","null","[Dot display: left=300, right=278, diff=22]","null","","-1","-1","300","278","22","","","","","","","","","","","","","","","","","","","","","","","","","","","","","","","","",""
"","confidence_first","html-keyboard-response","277","1002291","0.0-87.0-2.0","2887","Confidence judgement (first response)","","","-1","-1","","","","left","61","61","50","true","22","","","","","","","","","","","","","","","","","","","","","","","","","","",""
"","no_advice_display","html-button-response","278","1003640","0.0-87.0-5.0-0.0","1346","noAdvice","0","","-1","-1","","","","","","","","","","","","","","","","","","","","","","","","","","","","","","","","","","","",""
"","blank_screen","html-keyboard-response","279","1004443","0.0-87.0-5.0-1.0","null","blank","null","","-1","-1","","","","","","","","","","","","","","","","","","","","","","","","","","","","","","","","","","","",""
"","confidence_second","html-keyboard-response","280","1005790","0.0-87.0-6.0","1344.2999999523163","Confidence judgment (second response)","","","-1","-1","","","","left","61","61","50","","","","","","","","","","","","","","","","","","","","","","","","","","","","",""
"","consolidated-trial-data","consolidated-trial-data","281","1005792","0.0-88.0","null","consolidated-trial-data","null","","","","","","","","","","","","","","","1","9","24","300","278","22","left","61","true","2887","3","yes","left","left","61","true","","1344.2999999523163","","","","","","",""
"","fixation","html-keyboard-response","282","1007242","0.0-89.0-0.0","null","fixation","null","","-1","-1","","","","","","","","","","","","","","","","","","","","","","","","","","","","","","","","","","","",""
"","numerosity","html-keyboard-response","283","1007752","0.0-89.0-1.0","null","[Dot display: left=300, right=278, diff=22]","null","","-1","-1","300","278","22","","","","","","","","","","","","","","","","","","","","","","","","","","","","","","","","",""
"","confidence_first","html-keyboard-response","284","1010807","0.0-89.0-2.0","3052.2999999523163","Confidence judgement (first response)","","","-1","-1","","","","left","71.75","71.75","50","true","22","","","","","","","","","","","","","","","","","","","","","","","","","","",""
"","forced_advice_display","html-button-response","285","1012223","0.0-89.0-4.0-0.0","1414","forcedAdvice","0","","-1","-1","","","","","","","","","","","","","","","","","","","","","","","","","","","","","","","","","","","",""
"","show_advice","html-keyboard-response","286","1013026","0.0-89.0-4.0-1.0","null","[advice: left]","null","","-1","-1","","","","","","","","","","","left","","","","","","","","","","","","","","","","","","","","","","","","",""
"","confidence_second","html-keyboard-response","287","1016056","0.0-89.0-6.0","3027.4000000953674","Confidence judgment (second response)","","","-1","-1","","","","left","99.25","99.25","50","","","","","","","","","","","","","","","","","","","","","","","","","","","","",""
"","consolidated-trial-data","consolidated-trial-data","288","1016058","0.0-90.0","null","consolidated-trial-data","null","","","","","","","","","","","","","","","1","10","25","300","278","22","left","71.75","true","3052.2999999523163","2","yes","left","left","99.25","true","","3027.4000000953674","","","","","","",""
"","fixation","html-keyboard-response","289","1017462","0.0-91.0-0.0","null","fixation","null","","-1","-1","","","","","","","","","","","","","","","","","","","","","","","","","","","","","","","","","","","",""
"","numerosity","html-keyboard-response","290","1017970","0.0-91.0-1.0","null","[Dot display: left=300, right=278, diff=22]","null","","-1","-1","300","278","22","","","","","","","","","","","","","","","","","","","","","","","","","","","","","","","","",""
"","confidence_first","html-keyboard-response","291","1020790","0.0-91.0-2.0","2816.899999856949","Confidence judgement (first response)","","","-1","-1","","","","left","70.75","70.75","50","true","22","","","","","","","","","","","","","","","","","","","","","","","","","","",""
"","forced_advice_display","html-button-response","292","1022007","0.0-91.0-4.0-0.0","1214","forcedAdvice","0","","-1","-1","","","","","","","","","","","","","","","","","","","","","","","","","","","","","","","","","","","",""
"","show_advice","html-keyboard-response","293","1022810","0.0-91.0-4.0-1.0","null","[advice: left]","null","","-1","-1","","","","","","","","","","","left","","","","","","","","","","","","","","","","","","","","","","","","",""
"","confidence_second","html-keyboard-response","294","1025740","0.0-91.0-6.0","2927.5","Confidence judgment (second response)","","","-1","-1","","","","left","99","99","50","","","","","","","","","","","","","","","","","","","","","","","","","","","","",""
"","consolidated-trial-data","consolidated-trial-data","295","1025742","0.0-92.0","null","consolidated-trial-data","null","","","","","","","","","","","","","","","1","11","26","300","278","22","left","70.75","true","2816.899999856949","2","yes","left","left","99","true","","2927.5","","","","","","",""
"","fixation","html-keyboard-response","296","1026998","0.0-93.0-0.0","null","fixation","null","","-1","-1","","","","","","","","","","","","","","","","","","","","","","","","","","","","","","","","","","","",""
"","numerosity","html-keyboard-response","297","1027507","0.0-93.0-1.0","null","[Dot display: left=278, right=300, diff=22]","null","","-1","-1","278","300","22","","","","","","","","","","","","","","","","","","","","","","","","","","","","","","","","",""
"","confidence_first","html-keyboard-response","298","1030308","0.0-93.0-2.0","2797.5","Confidence judgement (first response)","","","-1","-1","","","","right","63.5","50","63.5","true","21","","","","","","","","","","","","","","","","","","","","","","","","","","",""
"","forced_advice_display","html-button-response","299","1031791","0.0-93.0-4.0-0.0","1480","forcedAdvice","0","","-1","-1","","","","","","","","","","","","","","","","","","","","","","","","","","","","","","","","","","","",""
"","show_advice","html-keyboard-response","300","1032593","0.0-93.0-4.0-1.0","null","[advice: right]","null","","-1","-1","","","","","","","","","","","right","","","","","","","","","","","","","","","","","","","","","","","","",""
"","confidence_second","html-keyboard-response","301","1035323","0.0-93.0-6.0","2726.9000000953674","Confidence judgment (second response)","","","-1","-1","","","","right","99.75","50","99.75","","","","","","","","","","","","","","","","","","","","","","","","","","","","",""
"","consolidated-trial-data","consolidated-trial-data","302","1035325","0.0-94.0","null","consolidated-trial-data","null","","","","","","","","","","","","","","","1","12","27","278","300","22","right","63.5","true","2797.5","2","yes","right","right","99.75","true","","2726.9000000953674","","","","","","",""
"","attncheck","html-button-response","303","1037574","0.0-95.0","2246","attncheck","2","","","","","","","","","","","","","","","","","","","","","","","","","","","","","","","","","true","Next","","","","",""
"","fixation","html-keyboard-response","304","1038807","0.0-96.0-0.0","null","fixation","null","","-1","-1","","","","","","","","","","","","","","","","","","","","","","","","","","","","","","","","","","","",""
"","numerosity","html-keyboard-response","305","1039316","0.0-96.0-1.0","null","[Dot display: left=300, right=279, diff=21]","null","","-1","-1","300","279","21","","","","","","","","","","","","","","","","","","","","","","","","","","","","","","","","",""
"","confidence_first","html-keyboard-response","306","1041875","0.0-96.0-2.0","2555","Confidence judgement (first response)","","","-1","-1","","","","left","71.5","71.5","50","true","21","","","","","","","","","","","","","","","","","","","","","","","","","","",""
"","no_advice_display","html-button-response","307","1043640","0.0-96.0-5.0-0.0","1763","noAdvice","0","","-1","-1","","","","","","","","","","","","","","","","","","","","","","","","","","","","","","","","","","","",""
"","blank_screen","html-keyboard-response","308","1044442","0.0-96.0-5.0-1.0","null","blank","null","","-1","-1","","","","","","","","","","","","","","","","","","","","","","","","","","","","","","","","","","","",""
"","confidence_second","html-keyboard-response","309","1045722","0.0-96.0-6.0","1278.4000000953674","Confidence judgment (second response)","","","-1","-1","","","","left","71.5","71.5","50","","","","","","","","","","","","","","","","","","","","","","","","","","","","",""
"","consolidated-trial-data","consolidated-trial-data","310","1045725","0.0-97.0","null","consolidated-trial-data","null","","","","","","","","","","","","","","","1","13","28","300","279","21","left","71.5","true","2555","3","yes","right","left","71.5","false","","1278.4000000953674","","","","","","",""
"","fixation","html-keyboard-response","311","1047189","0.0-98.0-0.0","null","fixation","null","","-1","-1","","","","","","","","","","","","","","","","","","","","","","","","","","","","","","","","","","","",""
"","numerosity","html-keyboard-response","312","1047696","0.0-98.0-1.0","null","[Dot display: left=300, right=279, diff=21]","null","","-1","-1","300","279","21","","","","","","","","","","","","","","","","","","","","","","","","","","","","","","","","",""
"","confidence_first","html-keyboard-response","313","1050442","0.0-98.0-2.0","2741.7000000476837","Confidence judgement (first response)","","","-1","-1","","","","left","70.25","70.25","50","true","21","","","","","","","","","","","","","","","","","","","","","","","","","","",""
"","forced_advice_display","html-button-response","314","1051857","0.0-98.0-4.0-0.0","1413","forcedAdvice","0","","-1","-1","","","","","","","","","","","","","","","","","","","","","","","","","","","","","","","","","","","",""
"","show_advice","html-keyboard-response","315","1052660","0.0-98.0-4.0-1.0","null","[advice: left]","null","","-1","-1","","","","","","","","","","","left","","","","","","","","","","","","","","","","","","","","","","","","",""
"","confidence_second","html-keyboard-response","316","1055707","0.0-98.0-6.0","3044.399999856949","Confidence judgment (second response)","","","-1","-1","","","","left","99.25","99.25","50","","","","","","","","","","","","","","","","","","","","","","","","","","","","",""
"","consolidated-trial-data","consolidated-trial-data","317","1055709","0.0-99.0","null","consolidated-trial-data","null","","","","","","","","","","","","","","","1","14","29","300","279","21","left","70.25","true","2741.7000000476837","2","yes","left","left","99.25","true","","3044.399999856949","","","","","","",""
"","block_message","html-button-response","318","1064024","0.0-100.0","8312","block message","0","","","","","","","","","","","","","3","","","","","","","","","","","","","","","","","","","","","","","","","",""
"","fixation","html-keyboard-response","319","1065339","0.0-101.0-0.0","null","fixation","null","","-1","-1","","","","","","","","","","","","","","","","","","","","","","","","","","","","","","","","","","","",""
"","numerosity","html-keyboard-response","320","1065847","0.0-101.0-1.0","null","[Dot display: left=300, right=279, diff=21]","null","","-1","-1","300","279","21","","","","","","","","","","","","","","","","","","","","","","","","","","","","","","","","",""
"","confidence_first","html-keyboard-response","321","1068573","0.0-101.0-2.0","2722.7000000476837","Confidence judgement (first response)","","","-1","-1","","","","left","68","68","50","true","21","","","","","","","","","","","","","","","","","","","","","","","","","","",""
"","advice_choice","html-button-response","322","1069941","0.0-101.0-3.0-0.0","1366","[advice choice Y,N]","0","","-1","-1","","","","","","","","","","","","","","","","","","","","","","","","","","","","","","","","","","","",""
"","show_advice","html-keyboard-response","323","1070744","0.0-101.0-3.0-1.0-0.0","null","[advice: left]","null","","-1","-1","","","","","","","","","","","left","","","","","","","","","","","","","","","","","","","","","","","","",""
"","confidence_second","html-keyboard-response","324","1074056","0.0-101.0-6.0","3309.7000000476837","Confidence judgment (second response)","","","-1","-1","","","","left","99.25","99.25","50","","","","","","","","","","","","","","","","","","","","","","","","","","","","",""
"","consolidated-trial-data","consolidated-trial-data","325","1074057","0.0-102.0","null","consolidated-trial-data","null","","","","","","","","","","","","","","","2","0","30","300","279","21","left","68","true","2722.7000000476837","1","yes","left","left","99.25","true","","3309.7000000476837","","","","","","",""
"","fixation","html-keyboard-response","326","1075343","0.0-103.0-0.0","null","fixation","null","","-1","-1","","","","","","","","","","","","","","","","","","","","","","","","","","","","","","","","","","","",""
"","numerosity","html-keyboard-response","327","1075850","0.0-103.0-1.0","null","[Dot display: left=300, right=279, diff=21]","null","","-1","-1","300","279","21","","","","","","","","","","","","","","","","","","","","","","","","","","","","","","","","",""
"","confidence_first","html-keyboard-response","328","1078092","0.0-103.0-2.0","2238.0999999046326","Confidence judgement (first response)","","","-1","-1","","","","right","68","50","68","false","22","","","","","","","","","","","","","","","","","","","","","","","","","","",""
"","forced_advice_display","html-button-response","329","1079091","0.0-103.0-4.0-0.0","997","forcedAdvice","0","","-1","-1","","","","","","","","","","","","","","","","","","","","","","","","","","","","","","","","","","","",""
"","show_advice","html-keyboard-response","330","1079894","0.0-103.0-4.0-1.0","null","[advice: left]","null","","-1","-1","","","","","","","","","","","left","","","","","","","","","","","","","","","","","","","","","","","","",""
"","confidence_second","html-keyboard-response","331","1082623","0.0-103.0-6.0","2726.9000000953674","Confidence judgment (second response)","","","-1","-1","","","","left","99","99","50","","","","","","","","","","","","","","","","","","","","","","","","","","","","",""
"","consolidated-trial-data","consolidated-trial-data","332","1082625","0.0-104.0","null","consolidated-trial-data","null","","","","","","","","","","","","","","","2","1","31","300","279","21","right","68","false","2238.0999999046326","2","yes","left","left","99","true","","2726.9000000953674","","","","","","",""
"","fixation","html-keyboard-response","333","1084069","0.0-105.0-0.0","null","fixation","null","","-1","-1","","","","","","","","","","","","","","","","","","","","","","","","","","","","","","","","","","","",""
"","numerosity","html-keyboard-response","334","1084577","0.0-105.0-1.0","null","[Dot display: left=300, right=278, diff=22]","null","","-1","-1","300","278","22","","","","","","","","","","","","","","","","","","","","","","","","","","","","","","","","",""
"","confidence_first","html-keyboard-response","335","1089909","0.0-105.0-2.0","5328","Confidence judgement (first response)","","","-1","-1","","","","left","77.75","77.75","50","true","21","","","","","","","","","","","","","","","","","","","","","","","","","","",""
"","advice_choice","html-button-response","336","1091508","0.0-105.0-3.0-0.0","1597","[advice choice Y,N]","0","","-1","-1","","","","","","","","","","","","","","","","","","","","","","","","","","","","","","","","","","","",""
"","show_advice","html-keyboard-response","337","1092312","0.0-105.0-3.0-1.0-0.0","null","[advice: left]","null","","-1","-1","","","","","","","","","","","left","","","","","","","","","","","","","","","","","","","","","","","","",""
"","confidence_second","html-keyboard-response","338","1094941","0.0-105.0-6.0","2626.199999809265","Confidence judgment (second response)","","","-1","-1","","","","left","99.25","99.25","50","","","","","","","","","","","","","","","","","","","","","","","","","","","","",""
"","consolidated-trial-data","consolidated-trial-data","339","1094943","0.0-106.0","null","consolidated-trial-data","null","","","","","","","","","","","","","","","2","2","32","300","278","22","left","77.75","true","5328","1","yes","left","left","99.25","true","","2626.199999809265","","","","","","",""
"","fixation","html-keyboard-response","340","1096249","0.0-107.0-0.0","null","fixation","null","","-1","-1","","","","","","","","","","","","","","","","","","","","","","","","","","","","","","","","","","","",""
"","numerosity","html-keyboard-response","341","1096757","0.0-107.0-1.0","null","[Dot display: left=279, right=300, diff=21]","null","","-1","-1","279","300","21","","","","","","","","","","","","","","","","","","","","","","","","","","","","","","","","",""
"","confidence_first","html-keyboard-response","342","1099008","0.0-107.0-2.0","2247.5","Confidence judgement (first response)","","","-1","-1","","","","left","73.25","73.25","50","false","22","","","","","","","","","","","","","","","","","","","","","","","","","","",""
"","no_advice_display","html-button-response","343","1100325","0.0-107.0-5.0-0.0","1315","noAdvice","0","","-1","-1","","","","","","","","","","","","","","","","","","","","","","","","","","","","","","","","","","","",""
"","blank_screen","html-keyboard-response","344","1101127","0.0-107.0-5.0-1.0","null","blank","null","","-1","-1","","","","","","","","","","","","","","","","","","","","","","","","","","","","","","","","","","","",""
"","confidence_second","html-keyboard-response","345","1102541","0.0-107.0-6.0","1411","Confidence judgment (second response)","","","-1","-1","","","","left","73.25","73.25","50","","","","","","","","","","","","","","","","","","","","","","","","","","","","",""
"","consolidated-trial-data","consolidated-trial-data","346","1102544","0.0-108.0","null","consolidated-trial-data","null","","","","","","","","","","","","","","","2","3","33","279","300","21","left","73.25","false","2247.5","3","yes","left","left","73.25","false","","1411","","","","","","",""
"","fixation","html-keyboard-response","347","1103754","0.0-109.0-0.0","null","fixation","null","","-1","-1","","","","","","","","","","","","","","","","","","","","","","","","","","","","","","","","","","","",""
"","numerosity","html-keyboard-response","348","1104262","0.0-109.0-1.0","null","[Dot display: left=278, right=300, diff=22]","null","","-1","-1","278","300","22","","","","","","","","","","","","","","","","","","","","","","","","","","","","","","","","",""
"","confidence_first","html-keyboard-response","349","1107056","0.0-109.0-2.0","2792","Confidence judgement (first response)","","","-1","-1","","","","right","92","50","92","true","22","","","","","","","","","","","","","","","","","","","","","","","","","","",""
"","advice_choice","html-button-response","350","1108689","0.0-109.0-3.0-0.0","1632","[advice choice Y,N]","0","","-1","-1","","","","","","","","","","","","","","","","","","","","","","","","","","","","","","","","","","","",""
"","show_advice","html-keyboard-response","351","1109493","0.0-109.0-3.0-1.0-0.0","null","[advice: right]","null","","-1","-1","","","","","","","","","","","right","","","","","","","","","","","","","","","","","","","","","","","","",""
"","confidence_second","html-keyboard-response","352","1112558","0.0-109.0-6.0","3061.7999999523163","Confidence judgment (second response)","","","-1","-1","","","","right","99.25","50","99.25","","","","","","","","","","","","","","","","","","","","","","","","","","","","",""
"","consolidated-trial-data","consolidated-trial-data","353","1112560","0.0-110.0","null","consolidated-trial-data","null","","","","","","","","","","","","","","","2","4","34","278","300","22","right","92","true","2792","1","yes","right","right","99.25","true","","3061.7999999523163","","","","","","",""
"","fixation","html-keyboard-response","354","1113887","0.0-111.0-0.0","null","fixation","null","","-1","-1","","","","","","","","","","","","","","","","","","","","","","","","","","","","","","","","","","","",""
"","numerosity","html-keyboard-response","355","1114394","0.0-111.0-1.0","null","[Dot display: left=300, right=278, diff=22]","null","","-1","-1","300","278","22","","","","","","","","","","","","","","","","","","","","","","","","","","","","","","","","",""
"","confidence_first","html-keyboard-response","356","1118527","0.0-111.0-2.0","4128.5","Confidence judgement (first response)","","","-1","-1","","","","left","72","72","50","true","22","","","","","","","","","","","","","","","","","","","","","","","","","","",""
"","advice_choice","html-button-response","357","1120009","0.0-111.0-3.0-0.0","1479","[advice choice Y,N]","0","","-1","-1","","","","","","","","","","","","","","","","","","","","","","","","","","","","","","","","","","","",""
"","show_advice","html-keyboard-response","358","1120813","0.0-111.0-3.0-1.0-0.0","null","[advice: left]","null","","-1","-1","","","","","","","","","","","left","","","","","","","","","","","","","","","","","","","","","","","","",""
"","confidence_second","html-keyboard-response","359","1123708","0.0-111.0-6.0","2892.2999999523163","Confidence judgment (second response)","","","-1","-1","","","","left","99.5","99.5","50","","","","","","","","","","","","","","","","","","","","","","","","","","","","",""
"","consolidated-trial-data","consolidated-trial-data","360","1123711","0.0-112.0","null","consolidated-trial-data","null","","","","","","","","","","","","","","","2","5","35","300","278","22","left","72","true","4128.5","1","yes","left","left","99.5","true","","2892.2999999523163","","","","","","",""
"","fixation","html-keyboard-response","361","1125074","0.0-113.0-0.0","null","fixation","null","","-1","-1","","","","","","","","","","","","","","","","","","","","","","","","","","","","","","","","","","","",""
"","numerosity","html-keyboard-response","362","1125583","0.0-113.0-1.0","null","[Dot display: left=300, right=278, diff=22]","null","","-1","-1","300","278","22","","","","","","","","","","","","","","","","","","","","","","","","","","","","","","","","",""
"","confidence_first","html-keyboard-response","363","1128042","0.0-113.0-2.0","2456","Confidence judgement (first response)","","","-1","-1","","","","left","71.5","71.5","50","true","22","","","","","","","","","","","","","","","","","","","","","","","","","","",""
"","no_advice_display","html-button-response","364","1129392","0.0-113.0-5.0-0.0","1347","noAdvice","0","","-1","-1","","","","","","","","","","","","","","","","","","","","","","","","","","","","","","","","","","","",""
"","blank_screen","html-keyboard-response","365","1130195","0.0-113.0-5.0-1.0","null","blank","null","","-1","-1","","","","","","","","","","","","","","","","","","","","","","","","","","","","","","","","","","","",""
"","confidence_second","html-keyboard-response","366","1131725","0.0-113.0-6.0","1526.7999999523163","Confidence judgment (second response)","","","-1","-1","","","","left","71.5","71.5","50","","","","","","","","","","","","","","","","","","","","","","","","","","","","",""
"","consolidated-trial-data","consolidated-trial-data","367","1131727","0.0-114.0","null","consolidated-trial-data","null","","","","","","","","","","","","","","","2","6","36","300","278","22","left","71.5","true","2456","3","yes","left","left","71.5","true","","1526.7999999523163","","","","","","",""
"","fixation","html-keyboard-response","368","1133107","0.0-115.0-0.0","null","fixation","null","","-1","-1","","","","","","","","","","","","","","","","","","","","","","","","","","","","","","","","","","","",""
"","numerosity","html-keyboard-response","369","1133616","0.0-115.0-1.0","null","[Dot display: left=278, right=300, diff=22]","null","","-1","-1","278","300","22","","","","","","","","","","","","","","","","","","","","","","","","","","","","","","","","",""
"","confidence_first","html-keyboard-response","370","1135725","0.0-115.0-2.0","2105.5","Confidence judgement (first response)","","","-1","-1","","","","left","67.25","67.25","50","false","22","","","","","","","","","","","","","","","","","","","","","","","","","","",""
"","no_advice_display","html-button-response","371","1136691","0.0-115.0-5.0-0.0","963","noAdvice","0","","-1","-1","","","","","","","","","","","","","","","","","","","","","","","","","","","","","","","","","","","",""
"","blank_screen","html-keyboard-response","372","1137494","0.0-115.0-5.0-1.0","null","blank","null","","-1","-1","","","","","","","","","","","","","","","","","","","","","","","","","","","","","","","","","","","",""
"","confidence_second","html-keyboard-response","373","1139073","0.0-115.0-6.0","1577.5","Confidence judgment (second response)","","","-1","-1","","","","left","67.25","67.25","50","","","","","","","","","","","","","","","","","","","","","","","","","","","","",""
"","consolidated-trial-data","consolidated-trial-data","374","1139075","0.0-116.0","null","consolidated-trial-data","null","","","","","","","","","","","","","","","2","7","37","278","300","22","left","67.25","false","2105.5","3","yes","left","left","67.25","false","","1577.5","","","","","","",""
"","fixation","html-keyboard-response","375","1140361","0.0-117.0-0.0","null","fixation","null","","-1","-1","","","","","","","","","","","","","","","","","","","","","","","","","","","","","","","","","","","",""
"","numerosity","html-keyboard-response","376","1140869","0.0-117.0-1.0","null","[Dot display: left=300, right=278, diff=22]","null","","-1","-1","300","278","22","","","","","","","","","","","","","","","","","","","","","","","","","","","","","","","","",""
"","confidence_first","html-keyboard-response","377","1143175","0.0-117.0-2.0","2302.600000143051","Confidence judgement (first response)","","","-1","-1","","","","left","72.75","72.75","50","true","22","","","","","","","","","","","","","","","","","","","","","","","","","","",""
"","advice_choice","html-button-response","378","1144525","0.0-117.0-3.0-0.0","1348","[advice choice Y,N]","0","","-1","-1","","","","","","","","","","","","","","","","","","","","","","","","","","","","","","","","","","","",""
"","show_advice","html-keyboard-response","379","1145328","0.0-117.0-3.0-1.0-0.0","null","[advice: left]","null","","-1","-1","","","","","","","","","","","left","","","","","","","","","","","","","","","","","","","","","","","","",""
"","confidence_second","html-keyboard-response","380","1148259","0.0-117.0-6.0","2927.4000000953674","Confidence judgment (second response)","","","-1","-1","","","","left","99.5","99.5","50","","","","","","","","","","","","","","","","","","","","","","","","","","","","",""
"","consolidated-trial-data","consolidated-trial-data","381","1148260","0.0-118.0","null","consolidated-trial-data","null","","","","","","","","","","","","","","","2","8","38","300","278","22","left","72.75","true","2302.600000143051","1","yes","left","left","99.5","true","","2927.4000000953674","","","","","","",""
"","fixation","html-keyboard-response","382","1149634","0.0-119.0-0.0","null","fixation","null","","-1","-1","","","","","","","","","","","","","","","","","","","","","","","","","","","","","","","","","","","",""
"","numerosity","html-keyboard-response","383","1150142","0.0-119.0-1.0","null","[Dot display: left=300, right=278, diff=22]","null","","-1","-1","300","278","22","","","","","","","","","","","","","","","","","","","","","","","","","","","","","","","","",""
"","confidence_first","html-keyboard-response","384","1152277","0.0-119.0-2.0","2130.899999856949","Confidence judgement (first response)","","","-1","-1","","","","left","69.25","69.25","50","true","22","","","","","","","","","","","","","","","","","","","","","","","","","","",""
"","no_advice_display","html-button-response","385","1153475","0.0-119.0-5.0-0.0","1197","noAdvice","0","","-1","-1","","","","","","","","","","","","","","","","","","","","","","","","","","","","","","","","","","","",""
"","blank_screen","html-keyboard-response","386","1154278","0.0-119.0-5.0-1.0","null","blank","null","","-1","-1","","","","","","","","","","","","","","","","","","","","","","","","","","","","","","","","","","","",""
"","confidence_second","html-keyboard-response","387","1155525","0.0-119.0-6.0","1244.6999998092651","Confidence judgment (second response)","","","-1","-1","","","","left","69.25","69.25","50","","","","","","","","","","","","","","","","","","","","","","","","","","","","",""
