"rt","stimulus","response","task","trial_type","trial_index","time_elapsed","internal_node_id","participant_age","participant_gender","pixels_per_unit","itrial","iblock","leftDots","rightDots","difference","selected_side","confidence_value","left_confidence","right_confidence","correct","threshold","block_num","advice_direction","block","trial","trialid","dotsLeft","dotsRight","dotsDiff","selectedSide_first","confidence_first","adviceCond","adviceChoice","adviceDir","selectedSide_second","confidence_second","adviceCorrect","attention_check_correct","target_button","top_prompt","bottom_prompt","top_response","bottom_response"
"298705","welcome_msg","0","welcome","html-button-response","0","298720","0.0-0.0","31","non-binary","","","","","","","","","","","","","","","","","","","","","","","","","","","","","","","","","",""
"26979","PISdoc","0","PISdoc","html-button-response","1","325722","0.0-1.0","31","non-binary","","","","","","","","","","","","","","","","","","","","","","","","","","","","","","","","","",""
"4942","","{""age"":""31"",""gender"":""non-binary""}","demographics","survey-html-form","2","330671","0.0-2.0","31","non-binary","","","","","","","","","","","","","","","","","","","","","","","","","","","","","","","","","",""
"16394","","{""felt_panic"":0,""no_initiative"":0,""felt_blue"":0,""was_intolerant"":0,""nothing_forward"":0,""felt_scared"":0,""over_react"":0,""felt_worry"":0,""no_relax"":0,""no_positive"":0,""felt_annoyed"":0,""EOL_thoughts"":0}","dass10","survey-likert","3","347075","0.0-3.0","31","non-binary","","","","","","","","","","","","","","","","","","","","","","","","","","","","","","","","","",""
"1643","pracInstruc","0","pracInstructions","html-button-response","4","348728","0.0-4.0-0.0","31","non-binary","","","","","","","","","","","","","","","","","","","","","","","","","","","","","","","","","",""
"2065","pracInstruc","0","pracInstructions","html-button-response","5","350795","0.0-4.0-0.1","31","non-binary","","","","","","","","","","","","","","","","","","","","","","","","","","","","","","","","","",""
"449","pracInstruc","0","pracInstructions","html-button-response","6","351246","0.0-4.0-0.2","31","non-binary","","","","","","","","","","","","","","","","","","","","","","","","","","","","","","","","","",""
"421","pracInstruc","0","pracInstructions","html-button-response","7","351669","0.0-4.0-0.3","31","non-binary","","","","","","","","","","","","","","","","","","","","","","","","","","","","","","","","","",""
"482","pracInstruc","0","pracInstructions","html-button-response","8","352154","0.0-4.0-0.4","31","non-binary","","","","","","","","","","","","","","","","","","","","","","","","","","","","","","","","","",""
"1275","<div style= ""font-size: 24px; color: white"">
                        
                            <p>First, Please hold a credit card up to your screen.</p>
                            <p>Adjust this box until it matches the size of the credit card.</p>
                            <div id=""calibration-box"" style=""
                                width: 506px;
                                height: 319px;
                                border: 2px solid white;
                                background-color: rgba(255,255,255,0.2);
                                margin: 20px auto;
                                resize: both;
                                overflow: hidden;
                            ""></div>
                        </div>
                    ","0","","html-button-response","9","353432","0.0-5.0","31","non-binary","151","","","","","","","","","","","","","","","","","","","","","","","","","","","","","","","","",""
"null","fixation","null","fixation","html-keyboard-response","10","353901","0.0-6.0-0.0","31","non-binary","","-1","-1","","","","","","","","","","","","","","","","","","","","","","","","","","","","","","",""
"null","[Dot display: left=250, right=300, diff=50]","null","numerosity","html-keyboard-response","11","354463","0.0-6.0-1.0","31","non-binary","","-1","-1","250","300","50","","","","","","","","","","","","","","","","","","","","","","","","","","","",""
"1357","Confidence judgement (first response)","","confidence_first","html-keyboard-response","12","355826","0.0-6.0-2.0","31","non-binary","","-1","-1","","","","left","93.25","93.25","50","false","39","","","","","","","","","","","","","","","","","","","","","",""
"null","fixation","null","fixation","html-keyboard-response","13","356130","0.0-6.0-0.1","31","non-binary","","-1","-1","","","","","","","","","","","","","","","","","","","","","","","","","","","","","","",""
"null","[Dot display: left=300, right=250, diff=50]","null","numerosity","html-keyboard-response","14","356645","0.0-6.0-1.1","31","non-binary","","-1","-1","300","250","50","","","","","","","","","","","","","","","","","","","","","","","","","","","",""
"1644","Confidence judgement (first response)","","confidence_first","html-keyboard-response","15","358293","0.0-6.0-2.1","31","non-binary","","-1","-1","","","","left","95","95","50","true","37","","","","","","","","","","","","","","","","","","","","","",""
"null","fixation","null","fixation","html-keyboard-response","16","358530","0.0-6.0-0.2","31","non-binary","","-1","-1","","","","","","","","","","","","","","","","","","","","","","","","","","","","","","",""
"null","[Dot display: left=250, right=300, diff=50]","null","numerosity","html-keyboard-response","17","359043","0.0-6.0-1.2","31","non-binary","","-1","-1","250","300","50","","","","","","","","","","","","","","","","","","","","","","","","","","","",""
"1054","Confidence judgement (first response)","","confidence_first","html-keyboard-response","18","360098","0.0-6.0-2.2","31","non-binary","","-1","-1","","","","left","97.75","97.75","50","false","53","","","","","","","","","","","","","","","","","","","","","",""
"null","fixation","null","fixation","html-keyboard-response","19","360503","0.0-6.0-0.3","31","non-binary","","-1","-1","","","","","","","","","","","","","","","","","","","","","","","","","","","","","","",""
"null","[Dot display: left=247, right=300, diff=53]","null","numerosity","html-keyboard-response","20","361017","0.0-6.0-1.3","31","non-binary","","-1","-1","247","300","53","","","","","","","","","","","","","","","","","","","","","","","","","","","",""
"1863","Confidence judgement (first response)","","confidence_first","html-keyboard-response","21","362883","0.0-6.0-2.3","31","non-binary","","-1","-1","","","","right","94","50","94","true","52","","","","","","","","","","","","","","","","","","","","","",""
"null","fixation","null","fixation","html-keyboard-response","22","363267","0.0-6.0-0.4","31","non-binary","","-1","-1","","","","","","","","","","","","","","","","","","","","","","","","","","","","","","",""
"null","[Dot display: left=300, right=248, diff=52]","null","numerosity","html-keyboard-response","23","363796","0.0-6.0-1.4","31","non-binary","","-1","-1","300","248","52","","","","","","","","","","","","","","","","","","","","","","","","","","","",""
"1172","Confidence judgement (first response)","","confidence_first","html-keyboard-response","24","364970","0.0-6.0-2.4","31","non-binary","","-1","-1","","","","right","92","50","92","false","58","","","","","","","","","","","","","","","","","","","","","",""
"null","fixation","null","fixation","html-keyboard-response","25","365387","0.0-6.0-0.5","31","non-binary","","-1","-1","","","","","","","","","","","","","","","","","","","","","","","","","","","","","","",""
"null","[Dot display: left=242, right=300, diff=58]","null","numerosity","html-keyboard-response","26","365919","0.0-6.0-1.5","31","non-binary","","-1","-1","242","300","58","","","","","","","","","","","","","","","","","","","","","","","","","","","",""
"965","Confidence judgement (first response)","","confidence_first","html-keyboard-response","27","366886","0.0-6.0-2.5","31","non-binary","","-1","-1","","","","left","96.5","96.5","50","false","62","","","","","","","","","","","","","","","","","","","","","",""
"null","fixation","null","fixation","html-keyboard-response","28","367303","0.0-6.0-0.6","31","non-binary","","-1","-1","","","","","","","","","","","","","","","","","","","","","","","","","","","","","","",""
"null","[Dot display: left=238, right=300, diff=62]","null","numerosity","html-keyboard-response","29","367818","0.0-6.0-1.6","31","non-binary","","-1","-1","238","300","62","","","","","","","","","","","","","","","","","","","","","","","","","","","",""
"1029","Confidence judgement (first response)","","confidence_first","html-keyboard-response","30","368850","0.0-6.0-2.6","31","non-binary","","-1","-1","","","","right","97","50","97","true","61","","","","","","","","","","","","","","","","","","","","","",""
"null","fixation","null","fixation","html-keyboard-response","31","369324","0.0-6.0-0.7","31","non-binary","","-1","-1","","","","","","","","","","","","","","","","","","","","","","","","","","","","","","",""
"null","[Dot display: left=300, right=239, diff=61]","null","numerosity","html-keyboard-response","32","369870","0.0-6.0-1.7","31","non-binary","","-1","-1","300","239","61","","","","","","","","","","","","","","","","","","","","","","","","","","","",""
"1249","Confidence judgement (first response)","","confidence_first","html-keyboard-response","33","371124","0.0-6.0-2.7","31","non-binary","","-1","-1","","","","left","98.25","98.25","50","true","60","","","","","","","","","","","","","","","","","","","","","",""
"null","fixation","null","fixation","html-keyboard-response","34","371514","0.0-6.0-0.8","31","non-binary","","-1","-1","","","","","","","","","","","","","","","","","","","","","","","","","","","","","","",""
"null","[Dot display: left=300, right=240, diff=60]","null","numerosity","html-keyboard-response","35","372028","0.0-6.0-1.8","31","non-binary","","-1","-1","300","240","60","","","","","","","","","","","","","","","","","","","","","","","","","","","",""
"1101","Confidence judgement (first response)","","confidence_first","html-keyboard-response","36","373129","0.0-6.0-2.8","31","non-binary","","-1","-1","","","","left","94","94","50","true","60","","","","","","","","","","","","","","","","","","","","","",""
"null","fixation","null","fixation","html-keyboard-response","37","373414","0.0-6.0-0.9","31","non-binary","","-1","-1","","","","","","","","","","","","","","","","","","","","","","","","","","","","","","",""
"null","[Dot display: left=240, right=300, diff=60]","null","numerosity","html-keyboard-response","38","373929","0.0-6.0-1.9","31","non-binary","","-1","-1","240","300","60","","","","","","","","","","","","","","","","","","","","","","","","","","","",""
"12037","Confidence judgement (first response)","","confidence_first","html-keyboard-response","39","385969","0.0-6.0-2.9","31","non-binary","","-1","-1","","","","left","95.5","95.5","50","false","63","","","","","","","","","","","","","","","","","","","","","",""
"null","fixation","null","fixation","html-keyboard-response","40","386188","0.0-6.0-0.10","31","non-binary","","-1","-1","","","","","","","","","","","","","","","","","","","","","","","","","","","","","","",""
"null","[Dot display: left=300, right=237, diff=63]","null","numerosity","html-keyboard-response","41","386698","0.0-6.0-1.10","31","non-binary","","-1","-1","300","237","63","","","","","","","","","","","","","","","","","","","","","","","","","","","",""
"1140","Confidence judgement (first response)","","confidence_first","html-keyboard-response","42","387841","0.0-6.0-2.10","31","non-binary","","-1","-1","","","","left","96.5","96.5","50","true","62","","","","","","","","","","","","","","","","","","","","","",""
"null","fixation","null","fixation","html-keyboard-response","43","388069","0.0-6.0-0.11","31","non-binary","","-1","-1","","","","","","","","","","","","","","","","","","","","","","","","","","","","","","",""
"null","[Dot display: left=238, right=300, diff=62]","null","numerosity","html-keyboard-response","44","388590","0.0-6.0-1.11","31","non-binary","","-1","-1","238","300","62","","","","","","","","","","","","","","","","","","","","","","","","","","","",""
"1037","Confidence judgement (first response)","","confidence_first","html-keyboard-response","45","389628","0.0-6.0-2.11","31","non-binary","","-1","-1","","","","right","99","50","99","true","62","","","","","","","","","","","","","","","","","","","","","",""
"null","fixation","null","fixation","html-keyboard-response","46","389870","0.0-6.0-0.12","31","non-binary","","-1","-1","","","","","","","","","","","","","","","","","","","","","","","","","","","","","","",""
"null","[Dot display: left=300, right=238, diff=62]","null","numerosity","html-keyboard-response","47","390385","0.0-6.0-1.12","31","non-binary","","-1","-1","300","238","62","","","","","","","","","","","","","","","","","","","","","","","","","","","",""
"789","Confidence judgement (first response)","","confidence_first","html-keyboard-response","48","391178","0.0-6.0-2.12","31","non-binary","","-1","-1","","","","right","92.75","50","92.75","false","65","","","","","","","","","","","","","","","","","","","","","",""
"null","fixation","null","fixation","html-keyboard-response","49","391505","0.0-6.0-0.13","31","non-binary","","-1","-1","","","","","","","","","","","","","","","","","","","","","","","","","","","","","","",""
"null","[Dot display: left=300, right=235, diff=65]","null","numerosity","html-keyboard-response","50","392016","0.0-6.0-1.13","31","non-binary","","-1","-1","300","235","65","","","","","","","","","","","","","","","","","","","","","","","","","","","",""
"1815","Confidence judgement (first response)","","confidence_first","html-keyboard-response","51","393833","0.0-6.0-2.13","31","non-binary","","-1","-1","","","","right","92.25","50","92.25","false","68","","","","","","","","","","","","","","","","","","","","","",""
"null","fixation","null","fixation","html-keyboard-response","52","394105","0.0-6.0-0.14","31","non-binary","","-1","-1","","","","","","","","","","","","","","","","","","","","","","","","","","","","","","",""
"null","[Dot display: left=300, right=232, diff=68]","null","numerosity","html-keyboard-response","53","394620","0.0-6.0-1.14","31","non-binary","","-1","-1","300","232","68","","","","","","","","","","","","","","","","","","","","","","","","","","","",""
"1160","Confidence judgement (first response)","","confidence_first","html-keyboard-response","54","395783","0.0-6.0-2.14","31","non-binary","","-1","-1","","","","left","96.5","96.5","50","true","68","","","","","","","","","","","","","","","","","","","","","",""
"null","fixation","null","fixation","html-keyboard-response","55","396192","0.0-6.0-0.15","31","non-binary","","-1","-1","","","","","","","","","","","","","","","","","","","","","","","","","","","","","","",""
"null","[Dot display: left=232, right=300, diff=68]","null","numerosity","html-keyboard-response","56","396707","0.0-6.0-1.15","31","non-binary","","-1","-1","232","300","68","","","","","","","","","","","","","","","","","","","","","","","","","","","",""
"1189","Confidence judgement (first response)","","confidence_first","html-keyboard-response","57","397899","0.0-6.0-2.15","31","non-binary","","-1","-1","","","","right","92.25","50","92.25","true","67","","","","","","","","","","","","","","","","","","","","","",""
"null","fixation","null","fixation","html-keyboard-response","58","398280","0.0-6.0-0.16","31","non-binary","","-1","-1","","","","","","","","","","","","","","","","","","","","","","","","","","","","","","",""
"null","[Dot display: left=233, right=300, diff=67]","null","numerosity","html-keyboard-response","59","398791","0.0-6.0-1.16","31","non-binary","","-1","-1","233","300","67","","","","","","","","","","","","","","","","","","","","","","","","","","","",""
"1722","Confidence judgement (first response)","","confidence_first","html-keyboard-response","60","400515","0.0-6.0-2.16","31","non-binary","","-1","-1","","","","right","88.75","50","88.75","true","66","","","","","","","","","","","","","","","","","","","","","",""
"null","fixation","null","fixation","html-keyboard-response","61","400926","0.0-6.0-0.17","31","non-binary","","-1","-1","","","","","","","","","","","","","","","","","","","","","","","","","","","","","","",""
"null","[Dot display: left=234, right=300, diff=66]","null","numerosity","html-keyboard-response","62","401461","0.0-6.0-1.17","31","non-binary","","-1","-1","234","300","66","","","","","","","","","","","","","","","","","","","","","","","","","","","",""
"1324","Confidence judgement (first response)","","confidence_first","html-keyboard-response","63","402788","0.0-6.0-2.17","31","non-binary","","-1","-1","","","","right","83","50","83","true","66","","","","","","","","","","","","","","","","","","","","","",""
"null","fixation","null","fixation","html-keyboard-response","64","403054","0.0-6.0-0.18","31","non-binary","","-1","-1","","","","","","","","","","","","","","","","","","","","","","","","","","","","","","",""
"null","[Dot display: left=234, right=300, diff=66]","null","numerosity","html-keyboard-response","65","403568","0.0-6.0-1.18","31","non-binary","","-1","-1","234","300","66","","","","","","","","","","","","","","","","","","","","","","","","","","","",""
"959","Confidence judgement (first response)","","confidence_first","html-keyboard-response","66","404527","0.0-6.0-2.18","31","non-binary","","-1","-1","","","","right","91","50","91","true","65","","","","","","","","","","","","","","","","","","","","","",""
"null","fixation","null","fixation","html-keyboard-response","67","405008","0.0-6.0-0.19","31","non-binary","","-1","-1","","","","","","","","","","","","","","","","","","","","","","","","","","","","","","",""
"null","[Dot display: left=235, right=300, diff=65]","null","numerosity","html-keyboard-response","68","405542","0.0-6.0-1.19","31","non-binary","","-1","-1","235","300","65","","","","","","","","","","","","","","","","","","","","","","","","","","","",""
"1108","Confidence judgement (first response)","","confidence_first","html-keyboard-response","69","406651","0.0-6.0-2.19","31","non-binary","","-1","-1","","","","right","87.5","50","87.5","true","64","","","","","","","","","","","","","","","","","","","","","",""
"null","fixation","null","fixation","html-keyboard-response","70","407042","0.0-6.0-0.20","31","non-binary","","-1","-1","","","","","","","","","","","","","","","","","","","","","","","","","","","","","","",""
"null","[Dot display: left=300, right=236, diff=64]","null","numerosity","html-keyboard-response","71","407576","0.0-6.0-1.20","31","non-binary","","-1","-1","300","236","64","","","","","","","","","","","","","","","","","","","","","","","","","","","",""
"985","Confidence judgement (first response)","","confidence_first","html-keyboard-response","72","408563","0.0-6.0-2.20","31","non-binary","","-1","-1","","","","left","91.5","91.5","50","true","64","","","","","","","","","","","","","","","","","","","","","",""
"null","fixation","null","fixation","html-keyboard-response","73","408887","0.0-6.0-0.21","31","non-binary","","-1","-1","","","","","","","","","","","","","","","","","","","","","","","","","","","","","","",""
"null","[Dot display: left=236, right=300, diff=64]","null","numerosity","html-keyboard-response","74","409402","0.0-6.0-1.21","31","non-binary","","-1","-1","236","300","64","","","","","","","","","","","","","","","","","","","","","","","","","","","",""
"981","Confidence judgement (first response)","","confidence_first","html-keyboard-response","75","410385","0.0-6.0-2.21","31","non-binary","","-1","-1","","","","right","88","50","88","true","63","","","","","","","","","","","","","","","","","","","","","",""
"null","fixation","null","fixation","html-keyboard-response","76","410863","0.0-6.0-0.22","31","non-binary","","-1","-1","","","","","","","","","","","","","","","","","","","","","","","","","","","","","","",""
"null","[Dot display: left=237, right=300, diff=63]","null","numerosity","html-keyboard-response","77","411377","0.0-6.0-1.22","31","non-binary","","-1","-1","237","300","63","","","","","","","","","","","","","","","","","","","","","","","","","","","",""
"994","Confidence judgement (first response)","","confidence_first","html-keyboard-response","78","412372","0.0-6.0-2.22","31","non-binary","","-1","-1","","","","right","92","50","92","true","63","","","","","","","","","","","","","","","","","","","","","",""
"null","fixation","null","fixation","html-keyboard-response","79","412846","0.0-6.0-0.23","31","non-binary","","-1","-1","","","","","","","","","","","","","","","","","","","","","","","","","","","","","","",""
"null","[Dot display: left=237, right=300, diff=63]","null","numerosity","html-keyboard-response","80","413359","0.0-6.0-1.23","31","non-binary","","-1","-1","237","300","63","","","","","","","","","","","","","","","","","","","","","","","","","","","",""
"954","Confidence judgement (first response)","","confidence_first","html-keyboard-response","81","414316","0.0-6.0-2.23","31","non-binary","","-1","-1","","","","right","93.75","50","93.75","true","62","","","","","","","","","","","","","","","","","","","","","",""
"null","fixation","null","fixation","html-keyboard-response","82","414812","0.0-6.0-0.24","31","non-binary","","-1","-1","","","","","","","","","","","","","","","","","","","","","","","","","","","","","","",""
"null","[Dot display: left=238, right=300, diff=62]","null","numerosity","html-keyboard-response","83","415335","0.0-6.0-1.24","31","non-binary","","-1","-1","238","300","62","","","","","","","","","","","","","","","","","","","","","","","","","","","",""
"1152","Confidence judgement (first response)","","confidence_first","html-keyboard-response","84","416491","0.0-6.0-2.24","31","non-binary","","-1","-1","","","","right","89.5","50","89.5","true","61","","","","","","","","","","","","","","","","","","","","","",""
"1517","expInstruc","0","expInstructions","html-button-response","85","418012","0.0-7.0-0.0","31","non-binary","","","","","","","","","","","","","","","","","","","","","","","","","","","","","","","","","",""
"1204","expInstruc","0","expInstructions","html-button-response","86","419219","0.0-7.0-0.1","31","non-binary","","","","","","","","","","","","","","","","","","","","","","","","","","","","","","","","","",""
"553","expInstruc","0","expInstructions","html-button-response","87","419776","0.0-7.0-0.2","31","non-binary","","","","","","","","","","","","","","","","","","","","","","","","","","","","","","","","","",""
"501","expInstruc","0","expInstructions","html-button-response","88","420279","0.0-7.0-0.3","31","non-binary","","","","","","","","","","","","","","","","","","","","","","","","","","","","","","","","","",""
"492","expInstruc","0","expInstructions","html-button-response","89","420773","0.0-7.0-0.4","31","non-binary","","","","","","","","","","","","","","","","","","","","","","","","","","","","","","","","","",""
"824","expInstruc","0","expInstructions","html-button-response","90","421599","0.0-7.0-0.5","31","non-binary","","","","","","","","","","","","","","","","","","","","","","","","","","","","","","","","","",""
"456","expInstruc","0","expInstructions","html-button-response","91","422058","0.0-7.0-0.6","31","non-binary","","","","","","","","","","","","","","","","","","","","","","","","","","","","","","","","","",""
"476","expInstruc","0","expInstructions","html-button-response","92","422535","0.0-7.0-0.7","31","non-binary","","","","","","","","","","","","","","","","","","","","","","","","","","","","","","","","","",""
"711","expInstruc","0","expInstructions","html-button-response","93","423249","0.0-7.0-0.8","31","non-binary","","","","","","","","","","","","","","","","","","","","","","","","","","","","","","","","","",""
"544","expInstruc","0","expInstructions","html-button-response","94","423796","0.0-7.0-0.9","31","non-binary","","","","","","","","","","","","","","","","","","","","","","","","","","","","","","","","","",""
"745","expInstruc","0","expInstructions","html-button-response","95","424546","0.0-7.0-0.10","31","non-binary","","","","","","","","","","","","","","","","","","","","","","","","","","","","","","","","","",""
"732","expInstruc","0","expInstructions","html-button-response","96","425279","0.0-7.0-0.11","31","non-binary","","","","","","","","","","","","","","","","","","","","","","","","","","","","","","","","","",""
"2974","block message","0","block_message","html-button-response","97","428257","0.0-8.0","31","non-binary","","","","","","","","","","","","","1","","","","","","","","","","","","","","","","","","","","",""
"null","fixation","null","fixation","html-keyboard-response","98","428739","0.0-9.0-0.0","31","non-binary","","-1","-1","","","","","","","","","","","","","","","","","","","","","","","","","","","","","","",""
"null","[Dot display: left=239, right=300, diff=61]","null","numerosity","html-keyboard-response","99","429252","0.0-9.0-1.0","31","non-binary","","-1","-1","239","300","61","","","","","","","","","","","","","","","","","","","","","","","","","","","",""
"1391","Confidence judgement (first response)","","confidence_first","html-keyboard-response","100","430642","0.0-9.0-2.0","31","non-binary","","-1","-1","","","","right","91","50","91","true","61","","","","","","","","","","","","","","","","","","","","","",""
"1969","forcedAdvice","0","forced_advice_display","html-button-response","101","432612","0.0-9.0-4.0-0.0","31","non-binary","","-1","-1","","","","","","","","","","","","","","","","","","","","","","","","","","","","","","",""
"null","[advice: left]","null","show_advice","html-keyboard-response","102","433454","0.0-9.0-4.0-1.0","31","non-binary","","-1","-1","","","","","","","","","","","left","","","","","","","","","","","","","","","","","","","",""
"1336","Confidence judgment (second response)","","confidence_second","html-keyboard-response","103","434793","0.0-9.0-6.0","31","non-binary","","-1","-1","","","","left","93","93","50","false","63","","","","","","","","","","","","","","","","","","","","","",""
"null","consolidated-trial-data","null","consolidated-trial-data","consolidated-trial-data","104","434796","0.0-10.0","31","non-binary","","","","","","","","","","","","","","","0","0","0","239","300","61","right","91","2","nan","left","left","93","false","","","","","",""
"null","fixation","null","fixation","html-keyboard-response","105","435053","0.0-11.0-0.0","31","non-binary","","-1","-1","","","","","","","","","","","","","","","","","","","","","","","","","","","","","","",""
"null","[Dot display: left=237, right=300, diff=63]","null","numerosity","html-keyboard-response","106","435567","0.0-11.0-1.0","31","non-binary","","-1","-1","237","300","63","","","","","","","","","","","","","","","","","","","","","","","","","","","",""
"1518","Confidence judgement (first response)","","confidence_first","html-keyboard-response","107","437087","0.0-11.0-2.0","31","non-binary","","-1","-1","","","","right","90.75","50","90.75","true","63","","","","","","","","","","","","","","","","","","","","","",""
"848","[advice choice Y,N]","0","advice_choice","html-button-response","108","437940","0.0-11.0-3.0-0.0","31","non-binary","","-1","-1","","","","","","","","","","","","","","","","","","","","","","","","","","","","","","",""
"null","[advice: left]","null","show_advice","html-keyboard-response","109","438751","0.0-11.0-3.0-1.0-0.0","31","non-binary","","-1","-1","","","","","","","","","","","left","","","","","","","","","","","","","","","","","","","",""
"912","Confidence judgment (second response)","","confidence_second","html-keyboard-response","110","439666","0.0-11.0-6.0","31","non-binary","","-1","-1","","","","left","90.75","90.75","50","false","65","","","","","","","","","","","","","","","","","","","","","",""
"null","consolidated-trial-data","null","consolidated-trial-data","consolidated-trial-data","111","439670","0.0-12.0","31","non-binary","","","","","","","","","","","","","","","0","1","1","237","300","63","right","90.75","1","yes","left","left","90.75","false","","","","","",""
"null","fixation","null","fixation","html-keyboard-response","112","439950","0.0-13.0-0.0","31","non-binary","","-1","-1","","","","","","","","","","","","","","","","","","","","","","","","","","","","","","",""
"null","[Dot display: left=235, right=300, diff=65]","null","numerosity","html-keyboard-response","113","440461","0.0-13.0-1.0","31","non-binary","","-1","-1","235","300","65","","","","","","","","","","","","","","","","","","","","","","","","","","","",""
"1114","Confidence judgement (first response)","","confidence_first","html-keyboard-response","114","441577","0.0-13.0-2.0","31","non-binary","","-1","-1","","","","right","93.75","50","93.75","true","64","","","","","","","","","","","","","","","","","","","","","",""
"923","forcedAdvice","0","forced_advice_display","html-button-response","115","442504","0.0-13.0-4.0-0.0","31","non-binary","","-1","-1","","","","","","","","","","","","","","","","","","","","","","","","","","","","","","",""
"null","[advice: right]","null","show_advice","html-keyboard-response","116","443307","0.0-13.0-4.0-1.0","31","non-binary","","-1","-1","","","","","","","","","","","right","","","","","","","","","","","","","","","","","","","",""
"1006","Confidence judgment (second response)","","confidence_second","html-keyboard-response","117","444315","0.0-13.0-6.0","31","non-binary","","-1","-1","","","","right","90.5","50","90.5","true","64","","","","","","","","","","","","","","","","","","","","","",""
"null","consolidated-trial-data","null","consolidated-trial-data","consolidated-trial-data","118","444316","0.0-14.0","31","non-binary","","","","","","","","","","","","","","","0","2","2","235","300","65","right","93.75","2","yes","right","right","90.5","true","","","","","",""
"null","fixation","null","fixation","html-keyboard-response","119","444740","0.0-15.0-0.0","31","non-binary","","-1","-1","","","","","","","","","","","","","","","","","","","","","","","","","","","","","","",""
"null","[Dot display: left=236, right=300, diff=64]","null","numerosity","html-keyboard-response","120","445257","0.0-15.0-1.0","31","non-binary","","-1","-1","236","300","64","","","","","","","","","","","","","","","","","","","","","","","","","","","",""
"935","Confidence judgement (first response)","","confidence_first","html-keyboard-response","121","446193","0.0-15.0-2.0","31","non-binary","","-1","-1","","","","right","97","50","97","true","63","","","","","","","","","","","","","","","","","","","","","",""
"974","forcedAdvice","0","forced_advice_display","html-button-response","122","447167","0.0-15.0-4.0-0.0","31","non-binary","","-1","-1","","","","","","","","","","","","","","","","","","","","","","","","","","","","","","",""
"null","[advice: right]","null","show_advice","html-keyboard-response","123","447980","0.0-15.0-4.0-1.0","31","non-binary","","-1","-1","","","","","","","","","","","right","","","","","","","","","","","","","","","","","","","",""
"1179","Confidence judgment (second response)","","confidence_second","html-keyboard-response","124","449161","0.0-15.0-6.0","31","non-binary","","-1","-1","","","","right","93.75","50","93.75","true","63","","","","","","","","","","","","","","","","","","","","","",""
"null","consolidated-trial-data","null","consolidated-trial-data","consolidated-trial-data","125","449165","0.0-16.0","31","non-binary","","","","","","","","","","","","","","","0","3","3","236","300","64","right","97","2","yes","right","right","93.75","true","","","","","",""
"1252","block message","0","block_message","html-button-response","126","450420","0.0-17.0","31","non-binary","","","","","","","","","","","","","1","","","","","","","","","","","","","","","","","","","","",""
"null","fixation","null","fixation","html-keyboard-response","127","450750","0.0-18.0-0.0","31","non-binary","","-1","-1","","","","","","","","","","","","","","","","","","","","","","","","","","","","","","",""
"null","[Dot display: left=300, right=237, diff=63]","null","numerosity","html-keyboard-response","128","451269","0.0-18.0-1.0","31","non-binary","","-1","-1","300","237","63","","","","","","","","","","","","","","","","","","","","","","","","","","","",""
"1310","Confidence judgement (first response)","","confidence_first","html-keyboard-response","129","452582","0.0-18.0-2.0","31","non-binary","","-1","-1","","","","left","93.5","93.5","50","true","62","","","","","","","","","","","","","","","","","","","","","",""
"931","forcedAdvice","0","forced_advice_display","html-button-response","130","453516","0.0-18.0-4.0-0.0","31","non-binary","","-1","-1","","","","","","","","","","","","","","","","","","","","","","","","","","","","","","",""
"null","[advice: left]","null","show_advice","html-keyboard-response","131","454321","0.0-18.0-4.0-1.0","31","non-binary","","-1","-1","","","","","","","","","","","left","","","","","","","","","","","","","","","","","","","",""
"990","Confidence judgment (second response)","","confidence_second","html-keyboard-response","132","455312","0.0-18.0-6.0","31","non-binary","","-1","-1","","","","left","93.5","93.5","50","true","62","","","","","","","","","","","","","","","","","","","","","",""
"null","consolidated-trial-data","null","consolidated-trial-data","consolidated-trial-data","133","455313","0.0-19.0","31","non-binary","","","","","","","","","","","","","","","0","4","4","300","237","63","left","93.5","2","yes","left","left","93.5","true","","","","","",""
"null","fixation","null","fixation","html-keyboard-response","134","455788","0.0-20.0-0.0","31","non-binary","","-1","-1","","","","","","","","","","","","","","","","","","","","","","","","","","","","","","",""
"null","[Dot display: left=238, right=300, diff=62]","null","numerosity","html-keyboard-response","135","456316","0.0-20.0-1.0","31","non-binary","","-1","-1","238","300","62","","","","","","","","","","","","","","","","","","","","","","","","","","","",""
"1331","Confidence judgement (first response)","","confidence_first","html-keyboard-response","136","457650","0.0-20.0-2.0","31","non-binary","","-1","-1","","","","right","97.5","50","97.5","true","62","","","","","","","","","","","","","","","","","","","","","",""
"888","[advice choice Y,N]","0","advice_choice","html-button-response","137","458541","0.0-20.0-3.0-0.0","31","non-binary","","-1","-1","","","","","","","","","","","","","","","","","","","","","","","","","","","","","","",""
"null","[advice: right]","null","show_advice","html-keyboard-response","138","459344","0.0-20.0-3.0-1.0-0.0","31","non-binary","","-1","-1","","","","","","","","","","","right","","","","","","","","","","","","","","","","","","","",""
"8282","Confidence judgment (second response)","","confidence_second","html-keyboard-response","139","467628","0.0-20.0-6.0","31","non-binary","","-1","-1","","","","right","100","50","100","true","61","","","","","","","","","","","","","","","","","","","","","",""
"null","consolidated-trial-data","null","consolidated-trial-data","consolidated-trial-data","140","467629","0.0-21.0","31","non-binary","","","","","","","","","","","","","","","0","5","5","238","300","62","right","97.5","1","yes","right","right","100","true","","","","","",""
"null","fixation","null","fixation","html-keyboard-response","141","467871","0.0-22.0-0.0","31","non-binary","","-1","-1","","","","","","","","","","","","","","","","","","","","","","","","","","","","","","",""
"null","[Dot display: left=239, right=300, diff=61]","null","numerosity","html-keyboard-response","142","468383","0.0-22.0-1.0","31","non-binary","","-1","-1","239","300","61","","","","","","","","","","","","","","","","","","","","","","","","","","","",""
"1137","Confidence judgement (first response)","","confidence_first","html-keyboard-response","143","469522","0.0-22.0-2.0","31","non-binary","","-1","-1","","","","right","99.75","50","99.75","true","61","","","","","","","","","","","","","","","","","","","","","",""
"792","noAdvice","0","no_advice_display","html-button-response","144","470318","0.0-22.0-5.0-0.0","31","non-binary","","-1","-1","","","","","","","","","","","","","","","","","","","","","","","","","","","","","","",""
"null","blank","null","blank_screen","html-keyboard-response","145","471167","0.0-22.0-5.0-1.0","31","non-binary","","-1","-1","","","","","","","","","","","","","","","","","","","","","","","","","","","","","","",""
"1405","Confidence judgment (second response)","","confidence_second","html-keyboard-response","146","472576","0.0-22.0-6.0","31","non-binary","","-1","-1","","","","right","75.5","50","75.5","true","60","","","","","","","","","","","","","","","","","","","","","",""
"null","consolidated-trial-data","null","consolidated-trial-data","consolidated-trial-data","147","472581","0.0-23.0","31","non-binary","","","","","","","","","","","","","","","0","6","6","239","300","61","right","99.75","3","yes","right","right","75.5","true","","","","","",""
"1806","attncheck","0","attncheck","html-button-response","148","474390","0.0-24.0","31","non-binary","","","","","","","","","","","","","","","","","","","","","","","","","","","","","true","Stop","","","",""
"null","fixation","null","fixation","html-keyboard-response","149","474712","0.0-25.0-0.0","31","non-binary","","-1","-1","","","","","","","","","","","","","","","","","","","","","","","","","","","","","","",""
"null","[Dot display: left=300, right=240, diff=60]","null","numerosity","html-keyboard-response","150","475224","0.0-25.0-1.0","31","non-binary","","-1","-1","300","240","60","","","","","","","","","","","","","","","","","","","","","","","","","","","",""
"8576","Confidence judgement (first response)","","confidence_first","html-keyboard-response","151","483802","0.0-25.0-2.0","31","non-binary","","-1","-1","","","","right","79.25","50","79.25","false","62","","","","","","","","","","","","","","","","","","","","","",""
"11496","[advice choice Y,N]","0","advice_choice","html-button-response","152","495302","0.0-25.0-3.0-0.0","31","non-binary","","-1","-1","","","","","","","","","","","","","","","","","","","","","","","","","","","","","","",""
"null","[advice: left]","null","show_advice","html-keyboard-response","153","496111","0.0-25.0-3.0-1.0-0.0","31","non-binary","","-1","-1","","","","","","","","","","","left","","","","","","","","","","","","","","","","","","","",""
"1338","Confidence judgment (second response)","","confidence_second","html-keyboard-response","154","497450","0.0-25.0-6.0","31","non-binary","","-1","-1","","","","left","86.75","86.75","50","true","62","","","","","","","","","","","","","","","","","","","","","",""
"null","consolidated-trial-data","null","consolidated-trial-data","consolidated-trial-data","155","497454","0.0-26.0","31","non-binary","","","","","","","","","","","","","","","0","7","7","300","240","60","right","79.25","1","yes","left","left","86.75","true","","","","","",""
"null","fixation","null","fixation","html-keyboard-response","156","497816","0.0-27.0-0.0","31","non-binary","","-1","-1","","","","","","","","","","","","","","","","","","","","","","","","","","","","","","",""
"null","[Dot display: left=238, right=300, diff=62]","null","numerosity","html-keyboard-response","157","498345","0.0-27.0-1.0","31","non-binary","","-1","-1","238","300","62","","","","","","","","","","","","","","","","","","","","","","","","","","","",""
"17831","Confidence judgement (first response)","","confidence_first","html-keyboard-response","158","516178","0.0-27.0-2.0","31","non-binary","","-1","-1","","","","right","71.5","50","71.5","true","61","","","","","","","","","","","","","","","","","","","","","",""
"1122","[advice choice Y,N]","1","advice_choice","html-button-response","159","517303","0.0-27.0-3.0-0.0","31","non-binary","","-1","-1","","","","","","","","","","","","","","","","","","","","","","","","","","","","","","",""
"null","blank","null","blank_screen","html-keyboard-response","160","518139","0.0-27.0-3.0-2.0-0.0","31","non-binary","","-1","-1","","","","","","","","","","","","","","","","","","","","","","","","","","","","","","",""
"5612","Confidence judgment (second response)","","confidence_second","html-keyboard-response","161","523755","0.0-27.0-6.0","31","non-binary","","-1","-1","","","","right","89.75","50","89.75","true","61","","","","","","","","","","","","","","","","","","","","","",""
"null","consolidated-trial-data","null","consolidated-trial-data","consolidated-trial-data","162","523760","0.0-28.0","31","non-binary","","","","","","","","","","","","","","","0","8","8","238","300","62","right","71.5","1","no","left","right","89.75","false","","","","","",""
"961","block message","0","block_message","html-button-response","163","524724","0.0-29.0","31","non-binary","","","","","","","","","","","","","1","","","","","","","","","","","","","","","","","","","","",""
"null","fixation","null","fixation","html-keyboard-response","164","524947","0.0-30.0-0.0","31","non-binary","","-1","-1","","","","","","","","","","","","","","","","","","","","","","","","","","","","","","",""
"null","[Dot display: left=300, right=239, diff=61]","null","numerosity","html-keyboard-response","165","525459","0.0-30.0-1.0","31","non-binary","","-1","-1","300","239","61","","","","","","","","","","","","","","","","","","","","","","","","","","","",""
"1255","Confidence judgement (first response)","","confidence_first","html-keyboard-response","166","526716","0.0-30.0-2.0","31","non-binary","","-1","-1","","","","left","94","94","50","true","61","","","","","","","","","","","","","","","","","","","","","",""
"65307","noAdvice","0","no_advice_display","html-button-response","167","592026","0.0-30.0-5.0-0.0","31","non-binary","","-1","-1","","","","","","","","","","","","","","","","","","","","","","","","","","","","","","",""
"null","blank","null","blank_screen","html-keyboard-response","168","592830","0.0-30.0-5.0-1.0","31","non-binary","","-1","-1","","","","","","","","","","","","","","","","","","","","","","","","","","","","","","",""
"1180","Confidence judgment (second response)","","confidence_second","html-keyboard-response","169","594012","0.0-30.0-6.0","31","non-binary","","-1","-1","","","","right","85.75","50","85.75","false","62","","","","","","","","","","","","","","","","","","","","","",""
"null","consolidated-trial-data","null","consolidated-trial-data","consolidated-trial-data","170","594014","0.0-31.0","31","non-binary","","","","","","","","","","","","","","","0","9","9","300","239","61","left","94","3","no","left","right","85.75","true","","","","","",""
"null","fixation","null","fixation","html-keyboard-response","171","594230","0.0-32.0-0.0","31","non-binary","","-1","-1","","","","","","","","","","","","","","","","","","","","","","","","","","","","","","",""
"null","[Dot display: left=300, right=238, diff=62]","null","numerosity","html-keyboard-response","172","594744","0.0-32.0-1.0","31","non-binary","","-1","-1","300","238","62","","","","","","","","","","","","","","","","","","","","","","","","","","","",""
"1221","Confidence judgement (first response)","","confidence_first","html-keyboard-response","173","595965","0.0-32.0-2.0","31","non-binary","","-1","-1","","","","left","88.75","88.75","50","true","62","","","","","","","","","","","","","","","","","","","","","",""
"993","noAdvice","0","no_advice_display","html-button-response","174","596960","0.0-32.0-5.0-0.0","31","non-binary","","-1","-1","","","","","","","","","","","","","","","","","","","","","","","","","","","","","","",""
"null","blank","null","blank_screen","html-keyboard-response","175","597779","0.0-32.0-5.0-1.0","31","non-binary","","-1","-1","","","","","","","","","","","","","","","","","","","","","","","","","","","","","","",""
"1937","Confidence judgment (second response)","","confidence_second","html-keyboard-response","176","599721","0.0-32.0-6.0","31","non-binary","","-1","-1","","","","left","59.25","59.25","50","true","61","","","","","","","","","","","","","","","","","","","","","",""
"null","consolidated-trial-data","null","consolidated-trial-data","consolidated-trial-data","177","599725","0.0-33.0","31","non-binary","","","","","","","","","","","","","","","0","10","10","300","238","62","left","88.75","3","no","left","left","59.25","true","","","","","",""
"null","fixation","null","fixation","html-keyboard-response","178","600211","0.0-34.0-0.0","31","non-binary","","-1","-1","","","","","","","","","","","","","","","","","","","","","","","","","","","","","","",""
"null","[Dot display: left=239, right=300, diff=61]","null","numerosity","html-keyboard-response","179","600758","0.0-34.0-1.0","31","non-binary","","-1","-1","239","300","61","","","","","","","","","","","","","","","","","","","","","","","","","","","",""
"1215","Confidence judgement (first response)","","confidence_first","html-keyboard-response","180","601974","0.0-34.0-2.0","31","non-binary","","-1","-1","","","","right","90","50","90","true","61","","","","","","","","","","","","","","","","","","","","","",""
"932","noAdvice","0","no_advice_display","html-button-response","181","602907","0.0-34.0-5.0-0.0","31","non-binary","","-1","-1","","","","","","","","","","","","","","","","","","","","","","","","","","","","","","",""
"null","blank","null","blank_screen","html-keyboard-response","182","603713","0.0-34.0-5.0-1.0","31","non-binary","","-1","-1","","","","","","","","","","","","","","","","","","","","","","","","","","","","","","",""
"2148","Confidence judgment (second response)","","confidence_second","html-keyboard-response","183","605864","0.0-34.0-6.0","31","non-binary","","-1","-1","","","","right","75.75","50","75.75","true","61","","","","","","","","","","","","","","","","","","","","","",""
"null","consolidated-trial-data","null","consolidated-trial-data","consolidated-trial-data","184","605868","0.0-35.0","31","non-binary","","","","","","","","","","","","","","","0","11","11","239","300","61","right","90","3","no","left","right","75.75","false","","","","","",""
"null","fixation","null","fixation","html-keyboard-response","185","606331","0.0-36.0-0.0","31","non-binary","","-1","-1","","","","","","","","","","","","","","","","","","","","","","","","","","","","","","",""
"null","[Dot display: left=239, right=300, diff=61]","null","numerosity","html-keyboard-response","186","606845","0.0-36.0-1.0","31","non-binary","","-1","-1","239","300","61","","","","","","","","","","","","","","","","","","","","","","","","","","","",""
"1310","Confidence judgement (first response)","","confidence_first","html-keyboard-response","187","608158","0.0-36.0-2.0","31","non-binary","","-1","-1","","","","right","93","50","93","true","60","","","","","","","","","","","","","","","","","","","","","",""
"1077","noAdvice","0","no_advice_display","html-button-response","188","609237","0.0-36.0-5.0-0.0","31","non-binary","","-1","-1","","","","","","","","","","","","","","","","","","","","","","","","","","","","","","",""
"null","blank","null","blank_screen","html-keyboard-response","189","610051","0.0-36.0-5.0-1.0","31","non-binary","","-1","-1","","","","","","","","","","","","","","","","","","","","","","","","","","","","","","",""
"976","Confidence judgment (second response)","","confidence_second","html-keyboard-response","190","611031","0.0-36.0-6.0","31","non-binary","","-1","-1","","","","right","85.75","50","85.75","true","60","","","","","","","","","","","","","","","","","","","","","",""
"null","consolidated-trial-data","null","consolidated-trial-data","consolidated-trial-data","191","611034","0.0-37.0","31","non-binary","","","","","","","","","","","","","","","0","12","12","239","300","61","right","93","3","no","left","right","85.75","false","","","","","",""
"null","fixation","null","fixation","html-keyboard-response","192","611500","0.0-38.0-0.0","31","non-binary","","-1","-1","","","","","","","","","","","","","","","","","","","","","","","","","","","","","","",""
"null","[Dot display: left=300, right=240, diff=60]","null","numerosity","html-keyboard-response","193","612013","0.0-38.0-1.0","31","non-binary","","-1","-1","300","240","60","","","","","","","","","","","","","","","","","","","","","","","","","","","",""
"1342","Confidence judgement (first response)","","confidence_first","html-keyboard-response","194","613356","0.0-38.0-2.0","31","non-binary","","-1","-1","","","","left","97.5","97.5","50","true","60","","","","","","","","","","","","","","","","","","","","","",""
"769","forcedAdvice","0","forced_advice_display","html-button-response","195","614128","0.0-38.0-4.0-0.0","31","non-binary","","-1","-1","","","","","","","","","","","","","","","","","","","","","","","","","","","","","","",""
"null","[advice: left]","null","show_advice","html-keyboard-response","196","614939","0.0-38.0-4.0-1.0","31","non-binary","","-1","-1","","","","","","","","","","","left","","","","","","","","","","","","","","","","","","","",""
"815","Confidence judgment (second response)","","confidence_second","html-keyboard-response","197","615757","0.0-38.0-6.0","31","non-binary","","-1","-1","","","","left","97.5","97.5","50","true","60","","","","","","","","","","","","","","","","","","","","","",""
"null","consolidated-trial-data","null","consolidated-trial-data","consolidated-trial-data","198","615761","0.0-39.0","31","non-binary","","","","","","","","","","","","","","","0","13","13","300","240","60","left","97.5","2","no","left","left","97.5","true","","","","","",""
"null","fixation","null","fixation","html-keyboard-response","199","616165","0.0-40.0-0.0","31","non-binary","","-1","-1","","","","","","","","","","","","","","","","","","","","","","","","","","","","","","",""
"null","[Dot display: left=240, right=300, diff=60]","null","numerosity","html-keyboard-response","200","616725","0.0-40.0-1.0","31","non-binary","","-1","-1","240","300","60","","","","","","","","","","","","","","","","","","","","","","","","","","","",""
"1299","Confidence judgement (first response)","","confidence_first","html-keyboard-response","201","618025","0.0-40.0-2.0","31","non-binary","","-1","-1","","","","right","92","50","92","true","59","","","","","","","","","","","","","","","","","","","","","",""
"772","[advice choice Y,N]","1","advice_choice","html-button-response","202","618800","0.0-40.0-3.0-0.0","31","non-binary","","-1","-1","","","","","","","","","","","","","","","","","","","","","","","","","","","","","","",""
"null","blank","null","blank_screen","html-keyboard-response","203","619616","0.0-40.0-3.0-2.0-0.0","31","non-binary","","-1","-1","","","","","","","","","","","","","","","","","","","","","","","","","","","","","","",""
"1253","Confidence judgment (second response)","","confidence_second","html-keyboard-response","204","620872","0.0-40.0-6.0","31","non-binary","","-1","-1","","","","left","90.5","90.5","50","false","60","","","","","","","","","","","","","","","","","","","","","",""
"null","consolidated-trial-data","null","consolidated-trial-data","consolidated-trial-data","205","620876","0.0-41.0","31","non-binary","","","","","","","","","","","","","","","0","14","14","240","300","60","right","92","1","no","left","left","90.5","false","","","","","",""
"1596","block message","0","block_message","html-button-response","206","622474","0.0-42.0","31","non-binary","","","","","","","","","","","","","2","","","","","","","","","","","","","","","","","","","","",""
"1641","attncheck","0","attncheck","html-button-response","207","624118","0.0-43.0","31","non-binary","","","","","","","","","","","","","","","","","","","","","","","","","","","","","true","Stop","","","",""
"null","fixation","null","fixation","html-keyboard-response","208","624456","0.0-44.0-0.0","31","non-binary","","-1","-1","","","","","","","","","","","","","","","","","","","","","","","","","","","","","","",""
"null","[Dot display: left=240, right=300, diff=60]","null","numerosity","html-keyboard-response","209","624970","0.0-44.0-1.0","31","non-binary","","-1","-1","240","300","60","","","","","","","","","","","","","","","","","","","","","","","","","","","",""
"4058","Confidence judgement (first response)","","confidence_first","html-keyboard-response","210","629030","0.0-44.0-2.0","31","non-binary","","-1","-1","","","","left","88.5","88.5","50","false","62","","","","","","","","","","","","","","","","","","","","","",""
"807","forcedAdvice","0","forced_advice_display","html-button-response","211","629840","0.0-44.0-4.0-0.0","31","non-binary","","-1","-1","","","","","","","","","","","","","","","","","","","","","","","","","","","","","","",""
"null","[advice: left]","null","show_advice","html-keyboard-response","212","630648","0.0-44.0-4.0-1.0","31","non-binary","","-1","-1","","","","","","","","","","","left","","","","","","","","","","","","","","","","","","","",""
"1171","Confidence judgment (second response)","","confidence_second","html-keyboard-response","213","631820","0.0-44.0-6.0","31","non-binary","","-1","-1","","","","left","90.5","90.5","50","false","63","","","","","","","","","","","","","","","","","","","","","",""
"null","consolidated-trial-data","null","consolidated-trial-data","consolidated-trial-data","214","631824","0.0-45.0","31","non-binary","","","","","","","","","","","","","","","1","0","15","240","300","60","left","88.5","2","no","left","left","90.5","false","","","","","",""
"null","fixation","null","fixation","html-keyboard-response","215","632156","0.0-46.0-0.0","31","non-binary","","-1","-1","","","","","","","","","","","","","","","","","","","","","","","","","","","","","","",""
"null","[Dot display: left=237, right=300, diff=63]","null","numerosity","html-keyboard-response","216","632670","0.0-46.0-1.0","31","non-binary","","-1","-1","237","300","63","","","","","","","","","","","","","","","","","","","","","","","","","","","",""
"972","Confidence judgement (first response)","","confidence_first","html-keyboard-response","217","633644","0.0-46.0-2.0","31","non-binary","","-1","-1","","","","right","82","50","82","true","62","","","","","","","","","","","","","","","","","","","","","",""
"953","[advice choice Y,N]","1","advice_choice","html-button-response","218","634599","0.0-46.0-3.0-0.0","31","non-binary","","-1","-1","","","","","","","","","","","","","","","","","","","","","","","","","","","","","","",""
"null","blank","null","blank_screen","html-keyboard-response","219","635414","0.0-46.0-3.0-2.0-0.0","31","non-binary","","-1","-1","","","","","","","","","","","","","","","","","","","","","","","","","","","","","","",""
"2097","Confidence judgment (second response)","","confidence_second","html-keyboard-response","220","637513","0.0-46.0-6.0","31","non-binary","","-1","-1","","","","left","86.5","86.5","50","false","64","","","","","","","","","","","","","","","","","","","","","",""
"null","consolidated-trial-data","null","consolidated-trial-data","consolidated-trial-data","221","637517","0.0-47.0","31","non-binary","","","","","","","","","","","","","","","1","1","16","237","300","63","right","82","1","no","left","left","86.5","false","","","","","",""
"null","fixation","null","fixation","html-keyboard-response","222","637856","0.0-48.0-0.0","31","non-binary","","-1","-1","","","","","","","","","","","","","","","","","","","","","","","","","","","","","","",""
"null","[Dot display: left=300, right=236, diff=64]","null","numerosity","html-keyboard-response","223","638368","0.0-48.0-1.0","31","non-binary","","-1","-1","300","236","64","","","","","","","","","","","","","","","","","","","","","","","","","","","",""
"1207","Confidence judgement (first response)","","confidence_first","html-keyboard-response","224","639576","0.0-48.0-2.0","31","non-binary","","-1","-1","","","","left","93.5","93.5","50","true","63","","","","","","","","","","","","","","","","","","","","","",""
"792","forcedAdvice","0","forced_advice_display","html-button-response","225","640369","0.0-48.0-4.0-0.0","31","non-binary","","-1","-1","","","","","","","","","","","","","","","","","","","","","","","","","","","","","","",""
"null","[advice: left]","null","show_advice","html-keyboard-response","226","641187","0.0-48.0-4.0-1.0","31","non-binary","","-1","-1","","","","","","","","","","","left","","","","","","","","","","","","","","","","","","","",""
"913","Confidence judgment (second response)","","confidence_second","html-keyboard-response","227","642103","0.0-48.0-6.0","31","non-binary","","-1","-1","","","","left","93.5","93.5","50","true","63","","","","","","","","","","","","","","","","","","","","","",""
"null","consolidated-trial-data","null","consolidated-trial-data","consolidated-trial-data","228","642107","0.0-49.0","31","non-binary","","","","","","","","","","","","","","","1","2","17","300","236","64","left","93.5","2","no","left","left","93.5","true","","","","","",""
"null","fixation","null","fixation","html-keyboard-response","229","642339","0.0-50.0-0.0","31","non-binary","","-1","-1","","","","","","","","","","","","","","","","","","","","","","","","","","","","","","",""
"null","[Dot display: left=300, right=237, diff=63]","null","numerosity","html-keyboard-response","230","642853","0.0-50.0-1.0","31","non-binary","","-1","-1","300","237","63","","","","","","","","","","","","","","","","","","","","","","","","","","","",""
"1198","Confidence judgement (first response)","","confidence_first","html-keyboard-response","231","644053","0.0-50.0-2.0","31","non-binary","","-1","-1","","","","left","98","98","50","true","63","","","","","","","","","","","","","","","","","","","","","",""
"844","forcedAdvice","0","forced_advice_display","html-button-response","232","644900","0.0-50.0-4.0-0.0","31","non-binary","","-1","-1","","","","","","","","","","","","","","","","","","","","","","","","","","","","","","",""
"null","[advice: left]","null","show_advice","html-keyboard-response","233","645713","0.0-50.0-4.0-1.0","31","non-binary","","-1","-1","","","","","","","","","","","left","","","","","","","","","","","","","","","","","","","",""
"1474","Confidence judgment (second response)","","confidence_second","html-keyboard-response","234","647189","0.0-50.0-6.0","31","non-binary","","-1","-1","","","","left","98.25","98.25","50","true","63","","","","","","","","","","","","","","","","","","","","","",""
"null","consolidated-trial-data","null","consolidated-trial-data","consolidated-trial-data","235","647193","0.0-51.0","31","non-binary","","","","","","","","","","","","","","","1","3","18","300","237","63","left","98","2","no","left","left","98.25","true","","","","","",""
"1119","block message","0","block_message","html-button-response","236","648315","0.0-52.0","31","non-binary","","","","","","","","","","","","","2","","","","","","","","","","","","","","","","","","","","",""
"null","fixation","null","fixation","html-keyboard-response","237","648819","0.0-53.0-0.0","31","non-binary","","-1","-1","","","","","","","","","","","","","","","","","","","","","","","","","","","","","","",""
"null","[Dot display: left=300, right=237, diff=63]","null","numerosity","html-keyboard-response","238","649330","0.0-53.0-1.0","31","non-binary","","-1","-1","300","237","63","","","","","","","","","","","","","","","","","","","","","","","","","","","",""
"1350","Confidence judgement (first response)","","confidence_first","html-keyboard-response","239","650683","0.0-53.0-2.0","31","non-binary","","-1","-1","","","","left","96","96","50","true","62","","","","","","","","","","","","","","","","","","","","","",""
"860","forcedAdvice","0","forced_advice_display","html-button-response","240","651546","0.0-53.0-4.0-0.0","31","non-binary","","-1","-1","","","","","","","","","","","","","","","","","","","","","","","","","","","","","","",""
"null","[advice: left]","null","show_advice","html-keyboard-response","241","652351","0.0-53.0-4.0-1.0","31","non-binary","","-1","-1","","","","","","","","","","","left","","","","","","","","","","","","","","","","","","","",""
"962","Confidence judgment (second response)","","confidence_second","html-keyboard-response","242","653316","0.0-53.0-6.0","31","non-binary","","-1","-1","","","","left","96","96","50","true","62","","","","","","","","","","","","","","","","","","","","","",""
"null","consolidated-trial-data","null","consolidated-trial-data","consolidated-trial-data","243","653320","0.0-54.0","31","non-binary","","","","","","","","","","","","","","","1","4","19","300","237","63","left","96","2","no","left","left","96","true","","","","","",""
"null","fixation","null","fixation","html-keyboard-response","244","653766","0.0-55.0-0.0","31","non-binary","","-1","-1","","","","","","","","","","","","","","","","","","","","","","","","","","","","","","",""
"null","[Dot display: left=300, right=238, diff=62]","null","numerosity","html-keyboard-response","245","654282","0.0-55.0-1.0","31","non-binary","","-1","-1","300","238","62","","","","","","","","","","","","","","","","","","","","","","","","","","","",""
"1162","Confidence judgement (first response)","","confidence_first","html-keyboard-response","246","655447","0.0-55.0-2.0","31","non-binary","","-1","-1","","","","left","96.25","96.25","50","true","62","","","","","","","","","","","","","","","","","","","","","",""
"1179","[advice choice Y,N]","0","advice_choice","html-button-response","247","656630","0.0-55.0-3.0-0.0","31","non-binary","","-1","-1","","","","","","","","","","","","","","","","","","","","","","","","","","","","","","",""
"null","[advice: left]","null","show_advice","html-keyboard-response","248","657438","0.0-55.0-3.0-1.0-0.0","31","non-binary","","-1","-1","","","","","","","","","","","left","","","","","","","","","","","","","","","","","","","",""
"540","Confidence judgment (second response)","","confidence_second","html-keyboard-response","249","657981","0.0-55.0-6.0","31","non-binary","","-1","-1","","","","left","96.25","96.25","50","true","62","","","","","","","","","","","","","","","","","","","","","",""
"null","consolidated-trial-data","null","consolidated-trial-data","consolidated-trial-data","250","657985","0.0-56.0","31","non-binary","","","","","","","","","","","","","","","1","5","20","300","238","62","left","96.25","1","yes","left","left","96.25","true","","","","","",""
"null","fixation","null","fixation","html-keyboard-response","251","658217","0.0-57.0-0.0","31","non-binary","","-1","-1","","","","","","","","","","","","","","","","","","","","","","","","","","","","","","",""
"null","[Dot display: left=238, right=300, diff=62]","null","numerosity","html-keyboard-response","252","658731","0.0-57.0-1.0","31","non-binary","","-1","-1","238","300","62","","","","","","","","","","","","","","","","","","","","","","","","","","","",""
"1530","Confidence judgement (first response)","","confidence_first","html-keyboard-response","253","660263","0.0-57.0-2.0","31","non-binary","","-1","-1","","","","right","96.25","50","96.25","true","61","","","","","","","","","","","","","","","","","","","","","",""
"719","noAdvice","0","no_advice_display","html-button-response","254","660983","0.0-57.0-5.0-0.0","31","non-binary","","-1","-1","","","","","","","","","","","","","","","","","","","","","","","","","","","","","","",""
"null","blank","null","blank_screen","html-keyboard-response","255","661800","0.0-57.0-5.0-1.0","31","non-binary","","-1","-1","","","","","","","","","","","","","","","","","","","","","","","","","","","","","","",""
"2028","Confidence judgment (second response)","","confidence_second","html-keyboard-response","256","663831","0.0-57.0-6.0","31","non-binary","","-1","-1","","","","left","93.5","93.5","50","false","62","","","","","","","","","","","","","","","","","","","","","",""
"null","consolidated-trial-data","null","consolidated-trial-data","consolidated-trial-data","257","663835","0.0-58.0","31","non-binary","","","","","","","","","","","","","","","1","6","21","238","300","62","right","96.25","3","yes","left","left","93.5","false","","","","","",""
"1252","attncheck","1","attncheck","html-button-response","258","665090","0.0-59.0","31","non-binary","","","","","","","","","","","","","","","","","","","","","","","","","","","","","true","Continue","","","",""
"null","fixation","null","fixation","html-keyboard-response","259","665420","0.0-60.0-0.0","31","non-binary","","-1","-1","","","","","","","","","","","","","","","","","","","","","","","","","","","","","","",""
"null","[Dot display: left=300, right=238, diff=62]","null","numerosity","html-keyboard-response","260","665934","0.0-60.0-1.0","31","non-binary","","-1","-1","300","238","62","","","","","","","","","","","","","","","","","","","","","","","","","","","",""
"1584","Confidence judgement (first response)","","confidence_first","html-keyboard-response","261","667520","0.0-60.0-2.0","31","non-binary","","-1","-1","","","","left","97.5","97.5","50","true","62","","","","","","","","","","","","","","","","","","","","","",""
"1116","[advice choice Y,N]","0","advice_choice","html-button-response","262","668636","0.0-60.0-3.0-0.0","31","non-binary","","-1","-1","","","","","","","","","","","","","","","","","","","","","","","","","","","","","","",""
"null","[advice: left]","null","show_advice","html-keyboard-response","263","669446","0.0-60.0-3.0-1.0-0.0","31","non-binary","","-1","-1","","","","","","","","","","","left","","","","","","","","","","","","","","","","","","","",""
"1642","Confidence judgment (second response)","","confidence_second","html-keyboard-response","264","671091","0.0-60.0-6.0","31","non-binary","","-1","-1","","","","right","80.25","50","80.25","false","63","","","","","","","","","","","","","","","","","","","","","",""
"null","consolidated-trial-data","null","consolidated-trial-data","consolidated-trial-data","265","671095","0.0-61.0","31","non-binary","","","","","","","","","","","","","","","1","7","22","300","238","62","left","97.5","1","yes","left","right","80.25","true","","","","","",""
"null","fixation","null","fixation","html-keyboard-response","266","671513","0.0-62.0-0.0","31","non-binary","","-1","-1","","","","","","","","","","","","","","","","","","","","","","","","","","","","","","",""
"null","[Dot display: left=300, right=237, diff=63]","null","numerosity","html-keyboard-response","267","672027","0.0-62.0-1.0","31","non-binary","","-1","-1","300","237","63","","","","","","","","","","","","","","","","","","","","","","","","","","","",""
"1499","Confidence judgement (first response)","","confidence_first","html-keyboard-response","268","673527","0.0-62.0-2.0","31","non-binary","","-1","-1","","","","left","94.75","94.75","50","true","63","","","","","","","","","","","","","","","","","","","","","",""
"1107","[advice choice Y,N]","1","advice_choice","html-button-response","269","674636","0.0-62.0-3.0-0.0","31","non-binary","","-1","-1","","","","","","","","","","","","","","","","","","","","","","","","","","","","","","",""
"null","blank","null","blank_screen","html-keyboard-response","270","675448","0.0-62.0-3.0-2.0-0.0","31","non-binary","","-1","-1","","","","","","","","","","","","","","","","","","","","","","","","","","","","","","",""
"904","Confidence judgment (second response)","","confidence_second","html-keyboard-response","271","676356","0.0-62.0-6.0","31","non-binary","","-1","-1","","","","left","94.75","94.75","50","true","63","","","","","","","","","","","","","","","","","","","","","",""
"null","consolidated-trial-data","null","consolidated-trial-data","consolidated-trial-data","272","676361","0.0-63.0","31","non-binary","","","","","","","","","","","","","","","1","8","23","300","237","63","left","94.75","1","no","left","left","94.75","true","","","","","",""
"931","block message","0","block_message","html-button-response","273","677295","0.0-64.0","31","non-binary","","","","","","","","","","","","","2","","","","","","","","","","","","","","","","","","","","",""
"null","fixation","null","fixation","html-keyboard-response","274","677786","0.0-65.0-0.0","31","non-binary","","-1","-1","","","","","","","","","","","","","","","","","","","","","","","","","","","","","","",""
"null","[Dot display: left=300, right=237, diff=63]","null","numerosity","html-keyboard-response","275","678304","0.0-65.0-1.0","31","non-binary","","-1","-1","300","237","63","","","","","","","","","","","","","","","","","","","","","","","","","","","",""
"1693","Confidence judgement (first response)","","confidence_first","html-keyboard-response","276","680001","0.0-65.0-2.0","31","non-binary","","-1","-1","","","","left","97","97","50","true","62","","","","","","","","","","","","","","","","","","","","","",""
"940","noAdvice","0","no_advice_display","html-button-response","277","680944","0.0-65.0-5.0-0.0","31","non-binary","","-1","-1","","","","","","","","","","","","","","","","","","","","","","","","","","","","","","",""
"null","blank","null","blank_screen","html-keyboard-response","278","681754","0.0-65.0-5.0-1.0","31","non-binary","","-1","-1","","","","","","","","","","","","","","","","","","","","","","","","","","","","","","",""
"1062","Confidence judgment (second response)","","confidence_second","html-keyboard-response","279","682817","0.0-65.0-6.0","31","non-binary","","-1","-1","","","","left","92.75","92.75","50","true","62","","","","","","","","","","","","","","","","","","","","","",""
"null","consolidated-trial-data","null","consolidated-trial-data","consolidated-trial-data","280","682819","0.0-66.0","31","non-binary","","","","","","","","","","","","","","","1","9","24","300","237","63","left","97","3","no","left","left","92.75","true","","","","","",""
"null","fixation","null","fixation","html-keyboard-response","281","683213","0.0-67.0-0.0","31","non-binary","","-1","-1","","","","","","","","","","","","","","","","","","","","","","","","","","","","","","",""
"null","[Dot display: left=238, right=300, diff=62]","null","numerosity","html-keyboard-response","282","683729","0.0-67.0-1.0","31","non-binary","","-1","-1","238","300","62","","","","","","","","","","","","","","","","","","","","","","","","","","","",""
"1039","Confidence judgement (first response)","","confidence_first","html-keyboard-response","283","684771","0.0-67.0-2.0","31","non-binary","","-1","-1","","","","right","91.25","50","91.25","true","62","","","","","","","","","","","","","","","","","","","","","",""
"759","noAdvice","0","no_advice_display","html-button-response","284","685533","0.0-67.0-5.0-0.0","31","non-binary","","-1","-1","","","","","","","","","","","","","","","","","","","","","","","","","","","","","","",""
"null","blank","null","blank_screen","html-keyboard-response","285","686348","0.0-67.0-5.0-1.0","31","non-binary","","-1","-1","","","","","","","","","","","","","","","","","","","","","","","","","","","","","","",""
"1352","Confidence judgment (second response)","","confidence_second","html-keyboard-response","286","687702","0.0-67.0-6.0","31","non-binary","","-1","-1","","","","left","94.5","94.5","50","false","63","","","","","","","","","","","","","","","","","","","","","",""
"null","consolidated-trial-data","null","consolidated-trial-data","consolidated-trial-data","287","687704","0.0-68.0","31","non-binary","","","","","","","","","","","","","","","1","10","25","238","300","62","right","91.25","3","no","left","left","94.5","false","","","","","",""
"null","fixation","null","fixation","html-keyboard-response","288","688034","0.0-69.0-0.0","31","non-binary","","-1","-1","","","","","","","","","","","","","","","","","","","","","","","","","","","","","","",""
"null","[Dot display: left=300, right=237, diff=63]","null","numerosity","html-keyboard-response","289","688546","0.0-69.0-1.0","31","non-binary","","-1","-1","300","237","63","","","","","","","","","","","","","","","","","","","","","","","","","","","",""
"1285","Confidence judgement (first response)","","confidence_first","html-keyboard-response","290","689831","0.0-69.0-2.0","31","non-binary","","-1","-1","","","","left","96.75","96.75","50","true","63","","","","","","","","","","","","","","","","","","","","","",""
"861","noAdvice","0","no_advice_display","html-button-response","291","690694","0.0-69.0-5.0-0.0","31","non-binary","","-1","-1","","","","","","","","","","","","","","","","","","","","","","","","","","","","","","",""
"null","blank","null","blank_screen","html-keyboard-response","292","691581","0.0-69.0-5.0-1.0","31","non-binary","","-1","-1","","","","","","","","","","","","","","","","","","","","","","","","","","","","","","",""
"1115","Confidence judgment (second response)","","confidence_second","html-keyboard-response","293","692698","0.0-69.0-6.0","31","non-binary","","-1","-1","","","","left","91","91","50","true","62","","","","","","","","","","","","","","","","","","","","","",""
"null","consolidated-trial-data","null","consolidated-trial-data","consolidated-trial-data","294","692703","0.0-70.0","31","non-binary","","","","","","","","","","","","","","","1","11","26","300","237","63","left","96.75","3","no","left","left","91","true","","","","","",""
"null","fixation","null","fixation","html-keyboard-response","295","693196","0.0-71.0-0.0","31","non-binary","","-1","-1","","","","","","","","","","","","","","","","","","","","","","","","","","","","","","",""
"null","[Dot display: left=238, right=300, diff=62]","null","numerosity","html-keyboard-response","296","693709","0.0-71.0-1.0","31","non-binary","","-1","-1","238","300","62","","","","","","","","","","","","","","","","","","","","","","","","","","","",""
"1866","Confidence judgement (first response)","","confidence_first","html-keyboard-response","297","695577","0.0-71.0-2.0","31","non-binary","","-1","-1","","","","right","87","50","87","true","62","","","","","","","","","","","","","","","","","","","","","",""
"755","noAdvice","0","no_advice_display","html-button-response","298","696334","0.0-71.0-5.0-0.0","31","non-binary","","-1","-1","","","","","","","","","","","","","","","","","","","","","","","","","","","","","","",""
"null","blank","null","blank_screen","html-keyboard-response","299","697137","0.0-71.0-5.0-1.0","31","non-binary","","-1","-1","","","","","","","","","","","","","","","","","","","","","","","","","","","","","","",""
"1529","Confidence judgment (second response)","","confidence_second","html-keyboard-response","300","698668","0.0-71.0-6.0","31","non-binary","","-1","-1","","","","left","95","95","50","false","63","","","","","","","","","","","","","","","","","","","","","",""
"null","consolidated-trial-data","null","consolidated-trial-data","consolidated-trial-data","301","698674","0.0-72.0","31","non-binary","","","","","","","","","","","","","","","1","12","27","238","300","62","right","87","3","no","left","left","95","false","","","","","",""
"null","fixation","null","fixation","html-keyboard-response","302","699087","0.0-73.0-0.0","31","non-binary","","-1","-1","","","","","","","","","","","","","","","","","","","","","","","","","","","","","","",""
"null","[Dot display: left=300, right=237, diff=63]","null","numerosity","html-keyboard-response","303","699601","0.0-73.0-1.0","31","non-binary","","-1","-1","300","237","63","","","","","","","","","","","","","","","","","","","","","","","","","","","",""
"1268","Confidence judgement (first response)","","confidence_first","html-keyboard-response","304","700871","0.0-73.0-2.0","31","non-binary","","-1","-1","","","","right","94.5","50","94.5","false","64","","","","","","","","","","","","","","","","","","","","","",""
"913","forcedAdvice","0","forced_advice_display","html-button-response","305","701786","0.0-73.0-4.0-0.0","31","non-binary","","-1","-1","","","","","","","","","","","","","","","","","","","","","","","","","","","","","","",""
"null","[advice: left]","null","show_advice","html-keyboard-response","306","702591","0.0-73.0-4.0-1.0","31","non-binary","","-1","-1","","","","","","","","","","","left","","","","","","","","","","","","","","","","","","","",""
"1158","Confidence judgment (second response)","","confidence_second","html-keyboard-response","307","703750","0.0-73.0-6.0","31","non-binary","","-1","-1","","","","left","87.5","87.5","50","true","64","","","","","","","","","","","","","","","","","","","","","",""
"null","consolidated-trial-data","null","consolidated-trial-data","consolidated-trial-data","308","703752","0.0-74.0","31","non-binary","","","","","","","","","","","","","","","1","13","28","300","237","63","right","94.5","2","no","left","left","87.5","true","","","","","",""
"null","fixation","null","fixation","html-keyboard-response","309","703990","0.0-75.0-0.0","31","non-binary","","-1","-1","","","","","","","","","","","","","","","","","","","","","","","","","","","","","","",""
"null","[Dot display: left=300, right=236, diff=64]","null","numerosity","html-keyboard-response","310","704506","0.0-75.0-1.0","31","non-binary","","-1","-1","300","236","64","","","","","","","","","","","","","","","","","","","","","","","","","","","",""
"1272","Confidence judgement (first response)","","confidence_first","html-keyboard-response","311","705779","0.0-75.0-2.0","31","non-binary","","-1","-1","","","","left","99.75","99.75","50","true","64","","","","","","","","","","","","","","","","","","","","","",""
"1234","[advice choice Y,N]","0","advice_choice","html-button-response","312","707015","0.0-75.0-3.0-0.0","31","non-binary","","-1","-1","","","","","","","","","","","","","","","","","","","","","","","","","","","","","","",""
"null","[advice: left]","null","show_advice","html-keyboard-response","313","707818","0.0-75.0-3.0-1.0-0.0","31","non-binary","","-1","-1","","","","","","","","","","","left","","","","","","","","","","","","","","","","","","","",""
"623","Confidence judgment (second response)","","confidence_second","html-keyboard-response","314","708443","0.0-75.0-6.0","31","non-binary","","-1","-1","","","","left","99.75","99.75","50","true","63","","","","","","","","","","","","","","","","","","","","","",""
"null","consolidated-trial-data","null","consolidated-trial-data","consolidated-trial-data","315","708445","0.0-76.0","31","non-binary","","","","","","","","","","","","","","","1","14","29","300","236","64","left","99.75","1","yes","left","left","99.75","true","","","","","",""
"845","block message","0","block_message","html-button-response","316","709291","0.0-77.0","31","non-binary","","","","","","","","","","","","","3","","","","","","","","","","","","","","","","","","","","",""
"null","fixation","null","fixation","html-keyboard-response","317","709788","0.0-78.0-0.0","31","non-binary","","-1","-1","","","","","","","","","","","","","","","","","","","","","","","","","","","","","","",""
"null","[Dot display: left=237, right=300, diff=63]","null","numerosity","html-keyboard-response","318","710302","0.0-78.0-1.0","31","non-binary","","-1","-1","237","300","63","","","","","","","","","","","","","","","","","","","","","","","","","","","",""
"1082","Confidence judgement (first response)","","confidence_first","html-keyboard-response","319","711384","0.0-78.0-2.0","31","non-binary","","-1","-1","","","","right","93.5","50","93.5","true","63","","","","","","","","","","","","","","","","","","","","","",""
"705","forcedAdvice","0","forced_advice_display","html-button-response","320","712091","0.0-78.0-4.0-0.0","31","non-binary","","-1","-1","","","","","","","","","","","","","","","","","","","","","","","","","","","","","","",""
"null","[advice: right]","null","show_advice","html-keyboard-response","321","712896","0.0-78.0-4.0-1.0","31","non-binary","","-1","-1","","","","","","","","","","","right","","","","","","","","","","","","","","","","","","","",""
"888","Confidence judgment (second response)","","confidence_second","html-keyboard-response","322","713787","0.0-78.0-6.0","31","non-binary","","-1","-1","","","","left","87.25","87.25","50","false","64","","","","","","","","","","","","","","","","","","","","","",""
"null","consolidated-trial-data","null","consolidated-trial-data","consolidated-trial-data","323","713792","0.0-79.0","31","non-binary","","","","","","","","","","","","","","","2","0","30","237","300","63","right","93.5","2","yes","right","left","87.25","true","","","","","",""
"null","fixation","null","fixation","html-keyboard-response","324","714152","0.0-80.0-0.0","31","non-binary","","-1","-1","","","","","","","","","","","","","","","","","","","","","","","","","","","","","","",""
"null","[Dot display: left=300, right=236, diff=64]","null","numerosity","html-keyboard-response","325","714664","0.0-80.0-1.0","31","non-binary","","-1","-1","300","236","64","","","","","","","","","","","","","","","","","","","","","","","","","","","",""
"1131","Confidence judgement (first response)","","confidence_first","html-keyboard-response","326","715797","0.0-80.0-2.0","31","non-binary","","-1","-1","","","","left","96","96","50","true","64","","","","","","","","","","","","","","","","","","","","","",""
"748","[advice choice Y,N]","1","advice_choice","html-button-response","327","716546","0.0-80.0-3.0-0.0","31","non-binary","","-1","-1","","","","","","","","","","","","","","","","","","","","","","","","","","","","","","",""
"null","blank","null","blank_screen","html-keyboard-response","328","717361","0.0-80.0-3.0-2.0-0.0","31","non-binary","","-1","-1","","","","","","","","","","","","","","","","","","","","","","","","","","","","","","",""
"1239","Confidence judgment (second response)","","confidence_second","html-keyboard-response","329","718602","0.0-80.0-6.0","31","non-binary","","-1","-1","","","","right","80","50","80","false","65","","","","","","","","","","","","","","","","","","","","","",""
"null","consolidated-trial-data","null","consolidated-trial-data","consolidated-trial-data","330","718603","0.0-81.0","31","non-binary","","","","","","","","","","","","","","","2","1","31","300","236","64","left","96","1","no","right","right","80","false","","","","","",""
"null","fixation","null","fixation","html-keyboard-response","331","718932","0.0-82.0-0.0","31","non-binary","","-1","-1","","","","","","","","","","","","","","","","","","","","","","","","","","","","","","",""
"null","[Dot display: left=300, right=235, diff=65]","null","numerosity","html-keyboard-response","332","719444","0.0-82.0-1.0","31","non-binary","","-1","-1","300","235","65","","","","","","","","","","","","","","","","","","","","","","","","","","","",""
"1091","Confidence judgement (first response)","","confidence_first","html-keyboard-response","333","720537","0.0-82.0-2.0","31","non-binary","","-1","-1","","","","left","90","90","50","true","65","","","","","","","","","","","","","","","","","","","","","",""
"913","forcedAdvice","0","forced_advice_display","html-button-response","334","721451","0.0-82.0-4.0-0.0","31","non-binary","","-1","-1","","","","","","","","","","","","","","","","","","","","","","","","","","","","","","",""
"null","[advice: left]","null","show_advice","html-keyboard-response","335","722263","0.0-82.0-4.0-1.0","31","non-binary","","-1","-1","","","","","","","","","","","left","","","","","","","","","","","","","","","","","","","",""
"673","Confidence judgment (second response)","","confidence_second","html-keyboard-response","336","722938","0.0-82.0-6.0","31","non-binary","","-1","-1","","","","left","90","90","50","true","64","","","","","","","","","","","","","","","","","","","","","",""
"null","consolidated-trial-data","null","consolidated-trial-data","consolidated-trial-data","337","722944","0.0-83.0","31","non-binary","","","","","","","","","","","","","","","2","2","32","300","235","65","left","90","2","no","left","left","90","true","","","","","",""
"null","fixation","null","fixation","html-keyboard-response","338","723371","0.0-84.0-0.0","31","non-binary","","-1","-1","","","","","","","","","","","","","","","","","","","","","","","","","","","","","","",""
"null","[Dot display: left=236, right=300, diff=64]","null","numerosity","html-keyboard-response","339","723887","0.0-84.0-1.0","31","non-binary","","-1","-1","236","300","64","","","","","","","","","","","","","","","","","","","","","","","","","","","",""
"1012","Confidence judgement (first response)","","confidence_first","html-keyboard-response","340","724902","0.0-84.0-2.0","31","non-binary","","-1","-1","","","","right","91.25","50","91.25","true","64","","","","","","","","","","","","","","","","","","","","","",""
"777","forcedAdvice","0","forced_advice_display","html-button-response","341","725681","0.0-84.0-4.0-0.0","31","non-binary","","-1","-1","","","","","","","","","","","","","","","","","","","","","","","","","","","","","","",""
"null","[advice: right]","null","show_advice","html-keyboard-response","342","726490","0.0-84.0-4.0-1.0","31","non-binary","","-1","-1","","","","","","","","","","","right","","","","","","","","","","","","","","","","","","","",""
"1357","Confidence judgment (second response)","","confidence_second","html-keyboard-response","343","727850","0.0-84.0-6.0","31","non-binary","","-1","-1","","","","right","98.75","50","98.75","true","64","","","","","","","","","","","","","","","","","","","","","",""
"null","consolidated-trial-data","null","consolidated-trial-data","consolidated-trial-data","344","727851","0.0-85.0","31","non-binary","","","","","","","","","","","","","","","2","3","33","236","300","64","right","91.25","2","no","right","right","98.75","true","","","","","",""
"951","block message","0","block_message","html-button-response","345","728803","0.0-86.0","31","non-binary","","","","","","","","","","","","","3","","","","","","","","","","","","","","","","","","","","",""
"1279","attncheck","2","attncheck","html-button-response","346","730084","0.0-87.0","31","non-binary","","","","","","","","","","","","","","","","","","","","","","","","","","","","","true","Next","","","",""
"null","fixation","null","fixation","html-keyboard-response","347","730310","0.0-88.0-0.0","31","non-binary","","-1","-1","","","","","","","","","","","","","","","","","","","","","","","","","","","","","","",""
"null","[Dot display: left=236, right=300, diff=64]","null","numerosity","html-keyboard-response","348","730822","0.0-88.0-1.0","31","non-binary","","-1","-1","236","300","64","","","","","","","","","","","","","","","","","","","","","","","","","","","",""
"1293","Confidence judgement (first response)","","confidence_first","html-keyboard-response","349","732118","0.0-88.0-2.0","31","non-binary","","-1","-1","","","","right","97.75","50","97.75","true","64","","","","","","","","","","","","","","","","","","","","","",""
"887","forcedAdvice","0","forced_advice_display","html-button-response","350","733009","0.0-88.0-4.0-0.0","31","non-binary","","-1","-1","","","","","","","","","","","","","","","","","","","","","","","","","","","","","","",""
"null","[advice: right]","null","show_advice","html-keyboard-response","351","733825","0.0-88.0-4.0-1.0","31","non-binary","","-1","-1","","","","","","","","","","","right","","","","","","","","","","","","","","","","","","","",""
"1207","Confidence judgment (second response)","","confidence_second","html-keyboard-response","352","735034","0.0-88.0-6.0","31","non-binary","","-1","-1","","","","right","84.5","50","84.5","true","64","","","","","","","","","","","","","","","","","","","","","",""
"null","consolidated-trial-data","null","consolidated-trial-data","consolidated-trial-data","353","735039","0.0-89.0","31","non-binary","","","","","","","","","","","","","","","2","4","34","236","300","64","right","97.75","2","no","right","right","84.5","true","","","","","",""
"null","fixation","null","fixation","html-keyboard-response","354","735319","0.0-90.0-0.0","31","non-binary","","-1","-1","","","","","","","","","","","","","","","","","","","","","","","","","","","","","","",""
"null","[Dot display: left=236, right=300, diff=64]","null","numerosity","html-keyboard-response","355","735829","0.0-90.0-1.0","31","non-binary","","-1","-1","236","300","64","","","","","","","","","","","","","","","","","","","","","","","","","","","",""
"1252","Confidence judgement (first response)","","confidence_first","html-keyboard-response","356","737083","0.0-90.0-2.0","31","non-binary","","-1","-1","","","","right","93.5","50","93.5","true","63","","","","","","","","","","","","","","","","","","","","","",""
"859","[advice choice Y,N]","1","advice_choice","html-button-response","357","737945","0.0-90.0-3.0-0.0","31","non-binary","","-1","-1","","","","","","","","","","","","","","","","","","","","","","","","","","","","","","",""
"null","blank","null","blank_screen","html-keyboard-response","358","738748","0.0-90.0-3.0-2.0-0.0","31","non-binary","","-1","-1","","","","","","","","","","","","","","","","","","","","","","","","","","","","","","",""
"986","Confidence judgment (second response)","","confidence_second","html-keyboard-response","359","739736","0.0-90.0-6.0","31","non-binary","","-1","-1","","","","left","91.5","91.5","50","false","64","","","","","","","","","","","","","","","","","","","","","",""
"null","consolidated-trial-data","null","consolidated-trial-data","consolidated-trial-data","360","739737","0.0-91.0","31","non-binary","","","","","","","","","","","","","","","2","5","35","236","300","64","right","93.5","1","no","right","left","91.5","true","","","","","",""
"null","fixation","null","fixation","html-keyboard-response","361","740134","0.0-92.0-0.0","31","non-binary","","-1","-1","","","","","","","","","","","","","","","","","","","","","","","","","","","","","","",""
"null","[Dot display: left=236, right=300, diff=64]","null","numerosity","html-keyboard-response","362","740650","0.0-92.0-1.0","31","non-binary","","-1","-1","236","300","64","","","","","","","","","","","","","","","","","","","","","","","","","","","",""
"1557","Confidence judgement (first response)","","confidence_first","html-keyboard-response","363","742207","0.0-92.0-2.0","31","non-binary","","-1","-1","","","","right","93.75","50","93.75","true","64","","","","","","","","","","","","","","","","","","","","","",""
"962","noAdvice","0","no_advice_display","html-button-response","364","743172","0.0-92.0-5.0-0.0","31","non-binary","","-1","-1","","","","","","","","","","","","","","","","","","","","","","","","","","","","","","",""
"null","blank","null","blank_screen","html-keyboard-response","365","743976","0.0-92.0-5.0-1.0","31","non-binary","","-1","-1","","","","","","","","","","","","","","","","","","","","","","","","","","","","","","",""
"1646","Confidence judgment (second response)","","confidence_second","html-keyboard-response","366","745626","0.0-92.0-6.0","31","non-binary","","-1","-1","","","","right","87.75","50","87.75","true","64","","","","","","","","","","","","","","","","","","","","","",""
"null","consolidated-trial-data","null","consolidated-trial-data","consolidated-trial-data","367","745629","0.0-93.0","31","non-binary","","","","","","","","","","","","","","","2","6","36","236","300","64","right","93.75","3","no","right","right","87.75","true","","","","","",""
"null","fixation","null","fixation","html-keyboard-response","368","745902","0.0-94.0-0.0","31","non-binary","","-1","-1","","","","","","","","","","","","","","","","","","","","","","","","","","","","","","",""
"null","[Dot display: left=236, right=300, diff=64]","null","numerosity","html-keyboard-response","369","746418","0.0-94.0-1.0","31","non-binary","","-1","-1","236","300","64","","","","","","","","","","","","","","","","","","","","","","","","","","","",""
"1415","Confidence judgement (first response)","","confidence_first","html-keyboard-response","370","747836","0.0-94.0-2.0","31","non-binary","","-1","-1","","","","right","92.5","50","92.5","true","64","","","","","","","","","","","","","","","","","","","","","",""
"875","[advice choice Y,N]","1","advice_choice","html-button-response","371","748714","0.0-94.0-3.0-0.0","31","non-binary","","-1","-1","","","","","","","","","","","","","","","","","","","","","","","","","","","","","","",""
"null","blank","null","blank_screen","html-keyboard-response","372","749529","0.0-94.0-3.0-2.0-0.0","31","non-binary","","-1","-1","","","","","","","","","","","","","","","","","","","","","","","","","","","","","","",""
"1039","Confidence judgment (second response)","","confidence_second","html-keyboard-response","373","750569","0.0-94.0-6.0","31","non-binary","","-1","-1","","","","left","82.25","82.25","50","false","64","","","","","","","","","","","","","","","","","","","","","",""
"null","consolidated-trial-data","null","consolidated-trial-data","consolidated-trial-data","374","750571","0.0-95.0","31","non-binary","","","","","","","","","","","","","","","2","7","37","236","300","64","right","92.5","1","no","right","left","82.25","true","","","","","",""
"null","fixation","null","fixation","html-keyboard-response","375","750852","0.0-96.0-0.0","31","non-binary","","-1","-1","","","","","","","","","","","","","","","","","","","","","","","","","","","","","","",""
"null","[Dot display: left=300, right=236, diff=64]","null","numerosity","html-keyboard-response","376","751368","0.0-96.0-1.0","31","non-binary","","-1","-1","300","236","64","","","","","","","","","","","","","","","","","","","","","","","","","","","",""
"1535","Confidence judgement (first response)","","confidence_first","html-keyboard-response","377","752905","0.0-96.0-2.0","31","non-binary","","-1","-1","","","","left","98.25","98.25","50","true","64","","","","","","","","","","","","","","","","","","","","","",""
"1091","[advice choice Y,N]","0","advice_choice","html-button-response","378","753998","0.0-96.0-3.0-0.0","31","non-binary","","-1","-1","","","","","","","","","","","","","","","","","","","","","","","","","","","","","","",""
"null","[advice: left]","null","show_advice","html-keyboard-response","379","754822","0.0-96.0-3.0-1.0-0.0","31","non-binary","","-1","-1","","","","","","","","","","","left","","","","","","","","","","","","","","","","","","","",""
"1411","Confidence judgment (second response)","","confidence_second","html-keyboard-response","380","756234","0.0-96.0-6.0","31","non-binary","","-1","-1","","","","left","96.5","96.5","50","true","64","","","","","","","","","","","","","","","","","","","","","",""
"null","consolidated-trial-data","null","consolidated-trial-data","consolidated-trial-data","381","756237","0.0-97.0","31","non-binary","","","","","","","","","","","","","","","2","8","38","300","236","64","left","98.25","1","yes","left","left","96.5","true","","","","","",""
"1008","block message","0","block_message","html-button-response","382","757248","0.0-98.0","31","non-binary","","","","","","","","","","","","","3","","","","","","","","","","","","","","","","","","","","",""
"null","fixation","null","fixation","html-keyboard-response","383","757680","0.0-99.0-0.0","31","non-binary","","-1","-1","","","","","","","","","","","","","","","","","","","","","","","","","","","","","","",""
"null","[Dot display: left=300, right=236, diff=64]","null","numerosity","html-keyboard-response","384","758195","0.0-99.0-1.0","31","non-binary","","-1","-1","300","236","64","","","","","","","","","","","","","","","","","","","","","","","","","","","",""
"1550","Confidence judgement (first response)","","confidence_first","html-keyboard-response","385","759749","0.0-99.0-2.0","31","non-binary","","-1","-1","","","","right","92.25","50","92.25","false","65","","","","","","","","","","","","","","","","","","","","","",""
"834","noAdvice","0","no_advice_display","html-button-response","386","760585","0.0-99.0-5.0-0.0","31","non-binary","","-1","-1","","","","","","","","","","","","","","","","","","","","","","","","","","","","","","",""
"null","blank","null","blank_screen","html-keyboard-response","387","761404","0.0-99.0-5.0-1.0","31","non-binary","","-1","-1","","","","","","","","","","","","","","","","","","","","","","","","","","","","","","",""
"1554","Confidence judgment (second response)","","confidence_second","html-keyboard-response","388","762961","0.0-99.0-6.0","31","non-binary","","-1","-1","","","","left","94.5","94.5","50","true","65","","","","","","","","","","","","","","","","","","","","","",""
"null","consolidated-trial-data","null","consolidated-trial-data","consolidated-trial-data","389","762963","0.0-100.0","31","non-binary","","","","","","","","","","","","","","","2","9","39","300","236","64","right","92.25","3","yes","left","left","94.5","true","","","","","",""
"null","fixation","null","fixation","html-keyboard-response","390","763268","0.0-101.0-0.0","31","non-binary","","-1","-1","","","","","","","","","","","","","","","","","","","","","","","","","","","","","","",""
"null","[Dot display: left=300, right=235, diff=65]","null","numerosity","html-keyboard-response","391","763786","0.0-101.0-1.0","31","non-binary","","-1","-1","300","235","65","","","","","","","","","","","","","","","","","","","","","","","","","","","",""
"1299","Confidence judgement (first response)","","confidence_first","html-keyboard-response","392","765089","0.0-101.0-2.0","31","non-binary","","-1","-1","","","","left","96","96","50","true","64","","","","","","","","","","","","","","","","","","","","","",""
"849","noAdvice","0","no_advice_display","html-button-response","393","765942","0.0-101.0-5.0-0.0","31","non-binary","","-1","-1","","","","","","","","","","","","","","","","","","","","","","","","","","","","","","",""
"null","blank","null","blank_screen","html-keyboard-response","394","766748","0.0-101.0-5.0-1.0","31","non-binary","","-1","-1","","","","","","","","","","","","","","","","","","","","","","","","","","","","","","",""
"1629","Confidence judgment (second response)","","confidence_second","html-keyboard-response","395","768379","0.0-101.0-6.0","31","non-binary","","-1","-1","","","","left","94.25","94.25","50","true","64","","","","","","","","","","","","","","","","","","","","","",""
"null","consolidated-trial-data","null","consolidated-trial-data","consolidated-trial-data","396","768384","0.0-102.0","31","non-binary","","","","","","","","","","","","","","","2","10","40","300","235","65","left","96","3","yes","left","left","94.25","true","","","","","",""
"null","fixation","null","fixation","html-keyboard-response","397","768677","0.0-103.0-0.0","31","non-binary","","-1","-1","","","","","","","","","","","","","","","","","","","","","","","","","","","","","","",""
"null","[Dot display: left=300, right=236, diff=64]","null","numerosity","html-keyboard-response","398","769188","0.0-103.0-1.0","31","non-binary","","-1","-1","300","236","64","","","","","","","","","","","","","","","","","","","","","","","","","","","",""
