"success","task","trial_type","trial_index","time_elapsed","internal_node_id","rt","stimulus","response","pixels_per_unit","itrial","iblock","leftDots","rightDots","difference","selected_side","confidence_value","left_confidence","right_confidence","correct","threshold","block_num","advice_direction","block","trial","trialid","dotsLeft","dotsRight","dotsDiff","selectedSide_first","confidence_first","correct_1","rt_1","adviceCond","adviceChoice","adviceDir","selectedSide_second","confidence_second","adviceCorrect","correct_2","rt_2","attention_check_correct","target_button","top_prompt","bottom_prompt","top_response","bottom_response","question_order"
"true","fullscreen_enter","fullscreen","0","3566","0.0-0.0","","","","","","","","","","","","","","","","","","","","","","","","","","","","","","","","","","","","","","","","","",""
"","welcome","html-button-response","1","6865","0.0-1.0","3297","welcome_msg","0","","","","","","","","","","","","","","","","","","","","","","","","","","","","","","","","","","","","","","",""
"","PISdoc","html-button-response","2","37912","0.0-2.0","31044","PISdoc","0","","","","","","","","","","","","","","","","","","","","","","","","","","","","","","","","","","","","","","",""
"","demographics","survey-html-form","3","44536","0.0-3.0","6623","","{""age"":""36"",""gender"":""female"",""id"":""6625""}","","","","","","","","","","","","","","","","","","","","","","","","","","","","","","","","","","","","","","",""
"","dass10","survey-likert","4","123670","0.0-4.0","79133","","{""felt_panic"":1,""no_initiative"":3,""felt_blue"":2,""was_intolerant"":1,""nothing_forward"":1,""felt_scared"":1,""over_react"":1,""felt_worry"":2,""no_relax"":1,""no_positive"":1,""felt_annoyed"":0,""EOL_thoughts"":2}","","","","","","","","","","","","","","","","","","","","","","","","","","","","","","","","","","","","","","",""
"","pracInstructions","html-button-response","5","128589","0.0-5.0-0.0","4918","pracInstruc","0","","","","","","","","","","","","","","","","","","","","","","","","","","","","","","","","","","","","","","",""
"","pracInstructions","html-button-response","6","137596","0.0-5.0-0.1","9006","pracInstruc","0","","","","","","","","","","","","","","","","","","","","","","","","","","","","","","","","","","","","","","",""
"","pracInstructions","html-button-response","7","139756","0.0-5.0-0.2","2160","pracInstruc","0","","","","","","","","","","","","","","","","","","","","","","","","","","","","","","","","","","","","","","",""
"","pracInstructions","html-button-response","8","140820","0.0-5.0-0.3","1063","pracInstruc","0","","","","","","","","","","","","","","","","","","","","","","","","","","","","","","","","","","","","","","",""
"","pracInstructions","html-button-response","9","141766","0.0-5.0-0.4","945","pracInstruc","0","","","","","","","","","","","","","","","","","","","","","","","","","","","","","","","","","","","","","","",""
"","pracInstructions","html-button-response","10","142989","0.0-5.0-0.5","1223","pracInstruc","0","","","","","","","","","","","","","","","","","","","","","","","","","","","","","","","","","","","","","","",""
"","pracInstructions","html-button-response","11","145213","0.0-5.0-0.6","2224","pracInstruc","0","","","","","","","","","","","","","","","","","","","","","","","","","","","","","","","","","","","","","","",""
"","","html-button-response","12","153927","0.0-6.0","8712","<div style= ""font-size: 24px; color: white"">
                        
                            <p>First, Please hold a credit card up to your screen.</p>
                            <p>Adjust this box until it matches the size of the credit card.</p>
                            <div id=""calibration-box"" style=""
                                width: 506px;
                                height: 319px;
                                border: 2px solid white;
                                background-color: rgba(255,255,255,0.2);
                                margin: 20px auto;
                                resize: both;
                                overflow: hidden;
                            ""></div>
                        </div>
                    ","0","151","","","","","","","","","","","","","","","","","","","","","","","","","","","","","","","","","","","","","",""
"","fixation","html-keyboard-response","13","155323","0.0-7.0-0.0","null","fixation","null","","-1","-1","","","","","","","","","","","","","","","","","","","","","","","","","","","","","","","","","","","",""
"","numerosity","html-keyboard-response","14","155826","0.0-7.0-1.0","null","[Dot display: left=300, right=250, diff=50]","null","","-1","-1","300","250","50","","","","","","","","","","","","","","","","","","","","","","","","","","","","","","","","",""
"","confidence_first","html-keyboard-response","15","159264","0.0-7.0-2.0","3437","Confidence judgement (first response)","","","-1","-1","","","","left","56.75","56.75","50","true","19","","","","","","","","","","","","","","","","","","","","","","","","","","",""
"","fixation","html-keyboard-response","16","160740","0.0-8.0-0.0","null","fixation","null","","-1","-1","","","","","","","","","","","","","","","","","","","","","","","","","","","","","","","","","","","",""
"","numerosity","html-keyboard-response","17","161243","0.0-8.0-1.0","null","[Dot display: left=300, right=250, diff=50]","null","","-1","-1","300","250","50","","","","","","","","","","","","","","","","","","","","","","","","","","","","","","","","",""
"","confidence_first","html-keyboard-response","18","165022","0.0-8.0-2.0","3778","Confidence judgement (first response)","","","-1","-1","","","","left","50.25","50.25","50","true","19","","","","","","","","","","","","","","","","","","","","","","","","","","",""
"","fixation","html-keyboard-response","19","166414","0.0-9.0-0.0","null","fixation","null","","-1","-1","","","","","","","","","","","","","","","","","","","","","","","","","","","","","","","","","","","",""
"","numerosity","html-keyboard-response","20","166918","0.0-9.0-1.0","null","[Dot display: left=250, right=300, diff=50]","null","","-1","-1","250","300","50","","","","","","","","","","","","","","","","","","","","","","","","","","","","","","","","",""
"","confidence_first","html-keyboard-response","21","170455","0.0-9.0-2.0","3537.100000023842","Confidence judgement (first response)","","","-1","-1","","","","right","52.25","50","52.25","true","19","","","","","","","","","","","","","","","","","","","","","","","","","","",""
"","fixation","html-keyboard-response","22","171769","0.0-10.0-0.0","null","fixation","null","","-1","-1","","","","","","","","","","","","","","","","","","","","","","","","","","","","","","","","","","","",""
"","numerosity","html-keyboard-response","23","172272","0.0-10.0-1.0","null","[Dot display: left=300, right=281, diff=19]","null","","-1","-1","300","281","19","","","","","","","","","","","","","","","","","","","","","","","","","","","","","","","","",""
"","confidence_first","html-keyboard-response","24","174864","0.0-10.0-2.0","2591.5","Confidence judgement (first response)","","","-1","-1","","","","right","50.25","50","50.25","false","30","","","","","","","","","","","","","","","","","","","","","","","","","","",""
"","fixation","html-keyboard-response","25","176233","0.0-11.0-0.0","null","fixation","null","","-1","-1","","","","","","","","","","","","","","","","","","","","","","","","","","","","","","","","","","","",""
"","numerosity","html-keyboard-response","26","176736","0.0-11.0-1.0","null","[Dot display: left=300, right=270, diff=30]","null","","-1","-1","300","270","30","","","","","","","","","","","","","","","","","","","","","","","","","","","","","","","","",""
"","confidence_first","html-keyboard-response","27","179906","0.0-11.0-2.0","3169.600000023842","Confidence judgement (first response)","","","-1","-1","","","","left","68.25","68.25","50","true","29","","","","","","","","","","","","","","","","","","","","","","","","","","",""
"","fixation","html-keyboard-response","28","181328","0.0-12.0-0.0","null","fixation","null","","-1","-1","","","","","","","","","","","","","","","","","","","","","","","","","","","","","","","","","","","",""
"","numerosity","html-keyboard-response","29","181831","0.0-12.0-1.0","null","[Dot display: left=300, right=271, diff=29]","null","","-1","-1","300","271","29","","","","","","","","","","","","","","","","","","","","","","","","","","","","","","","","",""
"","confidence_first","html-keyboard-response","30","184354","0.0-12.0-2.0","2522.399999976158","Confidence judgement (first response)","","","-1","-1","","","","left","65.25","65.25","50","true","27","","","","","","","","","","","","","","","","","","","","","","","","","","",""
"","fixation","html-keyboard-response","31","185819","0.0-13.0-0.0","null","fixation","null","","-1","-1","","","","","","","","","","","","","","","","","","","","","","","","","","","","","","","","","","","",""
"","numerosity","html-keyboard-response","32","186322","0.0-13.0-1.0","null","[Dot display: left=300, right=273, diff=27]","null","","-1","-1","300","273","27","","","","","","","","","","","","","","","","","","","","","","","","","","","","","","","","",""
"","confidence_first","html-keyboard-response","33","188469","0.0-13.0-2.0","2145.899999976158","Confidence judgement (first response)","","","-1","-1","","","","left","89","89","50","true","26","","","","","","","","","","","","","","","","","","","","","","","","","","",""
"","fixation","html-keyboard-response","34","189826","0.0-14.0-0.0","null","fixation","null","","-1","-1","","","","","","","","","","","","","","","","","","","","","","","","","","","","","","","","","","","",""
"","numerosity","html-keyboard-response","35","190330","0.0-14.0-1.0","null","[Dot display: left=300, right=274, diff=26]","null","","-1","-1","300","274","26","","","","","","","","","","","","","","","","","","","","","","","","","","","","","","","","",""
"","confidence_first","html-keyboard-response","36","192480","0.0-14.0-2.0","2150","Confidence judgement (first response)","","","-1","-1","","","","left","83.5","83.5","50","true","24","","","","","","","","","","","","","","","","","","","","","","","","","","",""
"","fixation","html-keyboard-response","37","193969","0.0-15.0-0.0","null","fixation","null","","-1","-1","","","","","","","","","","","","","","","","","","","","","","","","","","","","","","","","","","","",""
"","numerosity","html-keyboard-response","38","194472","0.0-15.0-1.0","null","[Dot display: left=300, right=276, diff=24]","null","","-1","-1","300","276","24","","","","","","","","","","","","","","","","","","","","","","","","","","","","","","","","",""
"","confidence_first","html-keyboard-response","39","196753","0.0-15.0-2.0","2280.399999976158","Confidence judgement (first response)","","","-1","-1","","","","left","82.75","82.75","50","true","23","","","","","","","","","","","","","","","","","","","","","","","","","","",""
"","fixation","html-keyboard-response","40","198124","0.0-16.0-0.0","null","fixation","null","","-1","-1","","","","","","","","","","","","","","","","","","","","","","","","","","","","","","","","","","","",""
"","numerosity","html-keyboard-response","41","198628","0.0-16.0-1.0","null","[Dot display: left=300, right=277, diff=23]","null","","-1","-1","300","277","23","","","","","","","","","","","","","","","","","","","","","","","","","","","","","","","","",""
"","confidence_first","html-keyboard-response","42","201273","0.0-16.0-2.0","2644.5","Confidence judgement (first response)","","","-1","-1","","","","right","50","50","50","false","28","","","","","","","","","","","","","","","","","","","","","","","","","","",""
"","fixation","html-keyboard-response","43","202752","0.0-17.0-0.0","null","fixation","null","","-1","-1","","","","","","","","","","","","","","","","","","","","","","","","","","","","","","","","","","","",""
"","numerosity","html-keyboard-response","44","203254","0.0-17.0-1.0","null","[Dot display: left=300, right=272, diff=28]","null","","-1","-1","300","272","28","","","","","","","","","","","","","","","","","","","","","","","","","","","","","","","","",""
"","confidence_first","html-keyboard-response","45","205514","0.0-17.0-2.0","2259","Confidence judgement (first response)","","","-1","-1","","","","left","60.75","60.75","50","true","27","","","","","","","","","","","","","","","","","","","","","","","","","","",""
"","fixation","html-keyboard-response","46","206780","0.0-18.0-0.0","null","fixation","null","","-1","-1","","","","","","","","","","","","","","","","","","","","","","","","","","","","","","","","","","","",""
"","numerosity","html-keyboard-response","47","207283","0.0-18.0-1.0","null","[Dot display: left=273, right=300, diff=27]","null","","-1","-1","273","300","27","","","","","","","","","","","","","","","","","","","","","","","","","","","","","","","","",""
"","confidence_first","html-keyboard-response","48","209327","0.0-18.0-2.0","2043","Confidence judgement (first response)","","","-1","-1","","","","right","57.5","50","57.5","true","26","","","","","","","","","","","","","","","","","","","","","","","","","","",""
"","fixation","html-keyboard-response","49","210737","0.0-19.0-0.0","null","fixation","null","","-1","-1","","","","","","","","","","","","","","","","","","","","","","","","","","","","","","","","","","","",""
"","numerosity","html-keyboard-response","50","211240","0.0-19.0-1.0","null","[Dot display: left=300, right=274, diff=26]","null","","-1","-1","300","274","26","","","","","","","","","","","","","","","","","","","","","","","","","","","","","","","","",""
"","confidence_first","html-keyboard-response","51","213465","0.0-19.0-2.0","2224.2999999523163","Confidence judgement (first response)","","","-1","-1","","","","left","75","75","50","true","25","","","","","","","","","","","","","","","","","","","","","","","","","","",""
"","fixation","html-keyboard-response","52","214874","0.0-20.0-0.0","null","fixation","null","","-1","-1","","","","","","","","","","","","","","","","","","","","","","","","","","","","","","","","","","","",""
"","numerosity","html-keyboard-response","53","215377","0.0-20.0-1.0","null","[Dot display: left=275, right=300, diff=25]","null","","-1","-1","275","300","25","","","","","","","","","","","","","","","","","","","","","","","","","","","","","","","","",""
"","confidence_first","html-keyboard-response","54","217706","0.0-20.0-2.0","2328.7999999523163","Confidence judgement (first response)","","","-1","-1","","","","left","53","53","50","false","29","","","","","","","","","","","","","","","","","","","","","","","","","","",""
"","fixation","html-keyboard-response","55","219048","0.0-21.0-0.0","null","fixation","null","","-1","-1","","","","","","","","","","","","","","","","","","","","","","","","","","","","","","","","","","","",""
"","numerosity","html-keyboard-response","56","219550","0.0-21.0-1.0","null","[Dot display: left=300, right=271, diff=29]","null","","-1","-1","300","271","29","","","","","","","","","","","","","","","","","","","","","","","","","","","","","","","","",""
"","confidence_first","html-keyboard-response","57","221741","0.0-21.0-2.0","2190.5","Confidence judgement (first response)","","","-1","-1","","","","left","53","53","50","true","28","","","","","","","","","","","","","","","","","","","","","","","","","","",""
"","fixation","html-keyboard-response","58","223128","0.0-22.0-0.0","null","fixation","null","","-1","-1","","","","","","","","","","","","","","","","","","","","","","","","","","","","","","","","","","","",""
"","numerosity","html-keyboard-response","59","223631","0.0-22.0-1.0","null","[Dot display: left=300, right=272, diff=28]","null","","-1","-1","300","272","28","","","","","","","","","","","","","","","","","","","","","","","","","","","","","","","","",""
"","confidence_first","html-keyboard-response","60","226222","0.0-22.0-2.0","2590.5","Confidence judgement (first response)","","","-1","-1","","","","left","52.5","52.5","50","true","27","","","","","","","","","","","","","","","","","","","","","","","","","","",""
"","fixation","html-keyboard-response","61","227673","0.0-23.0-0.0","null","fixation","null","","-1","-1","","","","","","","","","","","","","","","","","","","","","","","","","","","","","","","","","","","",""
"","numerosity","html-keyboard-response","62","228177","0.0-23.0-1.0","null","[Dot display: left=273, right=300, diff=27]","null","","-1","-1","273","300","27","","","","","","","","","","","","","","","","","","","","","","","","","","","","","","","","",""
"","confidence_first","html-keyboard-response","63","230186","0.0-23.0-2.0","2008.3999999761581","Confidence judgement (first response)","","","-1","-1","","","","right","59.75","50","59.75","true","26","","","","","","","","","","","","","","","","","","","","","","","","","","",""
"","fixation","html-keyboard-response","64","231520","0.0-24.0-0.0","null","fixation","null","","-1","-1","","","","","","","","","","","","","","","","","","","","","","","","","","","","","","","","","","","",""
"","numerosity","html-keyboard-response","65","232023","0.0-24.0-1.0","null","[Dot display: left=300, right=274, diff=26]","null","","-1","-1","300","274","26","","","","","","","","","","","","","","","","","","","","","","","","","","","","","","","","",""
"","confidence_first","html-keyboard-response","66","234197","0.0-24.0-2.0","2173.8000000715256","Confidence judgement (first response)","","","-1","-1","","","","left","86.5","86.5","50","true","26","","","","","","","","","","","","","","","","","","","","","","","","","","",""
"","fixation","html-keyboard-response","67","235565","0.0-25.0-0.0","null","fixation","null","","-1","-1","","","","","","","","","","","","","","","","","","","","","","","","","","","","","","","","","","","",""
"","numerosity","html-keyboard-response","68","236068","0.0-25.0-1.0","null","[Dot display: left=274, right=300, diff=26]","null","","-1","-1","274","300","26","","","","","","","","","","","","","","","","","","","","","","","","","","","","","","","","",""
"","confidence_first","html-keyboard-response","69","238200","0.0-25.0-2.0","2131.100000023842","Confidence judgement (first response)","","","-1","-1","","","","left","81.5","81.5","50","false","28","","","","","","","","","","","","","","","","","","","","","","","","","","",""
"","fixation","html-keyboard-response","70","239516","0.0-26.0-0.0","null","fixation","null","","-1","-1","","","","","","","","","","","","","","","","","","","","","","","","","","","","","","","","","","","",""
"","numerosity","html-keyboard-response","71","240019","0.0-26.0-1.0","null","[Dot display: left=272, right=300, diff=28]","null","","-1","-1","272","300","28","","","","","","","","","","","","","","","","","","","","","","","","","","","","","","","","",""
"","confidence_first","html-keyboard-response","72","242069","0.0-26.0-2.0","2044","Confidence judgement (first response)","","","-1","-1","","","","right","63.75","50","63.75","true","28","","","","","","","","","","","","","","","","","","","","","","","","","","",""
"","fixation","html-keyboard-response","73","243503","0.0-27.0-0.0","null","fixation","null","","-1","-1","","","","","","","","","","","","","","","","","","","","","","","","","","","","","","","","","","","",""
"","numerosity","html-keyboard-response","74","244006","0.0-27.0-1.0","null","[Dot display: left=272, right=300, diff=28]","null","","-1","-1","272","300","28","","","","","","","","","","","","","","","","","","","","","","","","","","","","","","","","",""
"","confidence_first","html-keyboard-response","75","246191","0.0-27.0-2.0","2184.399999976158","Confidence judgement (first response)","","","-1","-1","","","","left","69.75","69.75","50","false","30","","","","","","","","","","","","","","","","","","","","","","","","","","",""
"","fixation","html-keyboard-response","76","247602","0.0-28.0-0.0","null","fixation","null","","-1","-1","","","","","","","","","","","","","","","","","","","","","","","","","","","","","","","","","","","",""
"","numerosity","html-keyboard-response","77","248105","0.0-28.0-1.0","null","[Dot display: left=270, right=300, diff=30]","null","","-1","-1","270","300","30","","","","","","","","","","","","","","","","","","","","","","","","","","","","","","","","",""
"","confidence_first","html-keyboard-response","78","250099","0.0-28.0-2.0","1993.3999999761581","Confidence judgement (first response)","","","-1","-1","","","","left","53.25","53.25","50","false","33","","","","","","","","","","","","","","","","","","","","","","","","","","",""
"","fixation","html-keyboard-response","79","251332","0.0-29.0-0.0","null","fixation","null","","-1","-1","","","","","","","","","","","","","","","","","","","","","","","","","","","","","","","","","","","",""
"","numerosity","html-keyboard-response","80","251835","0.0-29.0-1.0","null","[Dot display: left=300, right=267, diff=33]","null","","-1","-1","300","267","33","","","","","","","","","","","","","","","","","","","","","","","","","","","","","","","","",""
"","confidence_first","html-keyboard-response","81","253880","0.0-29.0-2.0","2044","Confidence judgement (first response)","","","-1","-1","","","","left","51","51","50","true","32","","","","","","","","","","","","","","","","","","","","","","","","","","",""
"","fixation","html-keyboard-response","82","255247","0.0-30.0-0.0","null","fixation","null","","-1","-1","","","","","","","","","","","","","","","","","","","","","","","","","","","","","","","","","","","",""
"","numerosity","html-keyboard-response","83","255750","0.0-30.0-1.0","null","[Dot display: left=300, right=268, diff=32]","null","","-1","-1","300","268","32","","","","","","","","","","","","","","","","","","","","","","","","","","","","","","","","",""
"","confidence_first","html-keyboard-response","84","258208","0.0-30.0-2.0","2456.899999976158","Confidence judgement (first response)","","","-1","-1","","","","left","51.75","51.75","50","true","32","","","","","","","","","","","","","","","","","","","","","","","","","","",""
"","fixation","html-keyboard-response","85","259443","0.0-31.0-0.0","null","fixation","null","","-1","-1","","","","","","","","","","","","","","","","","","","","","","","","","","","","","","","","","","","",""
"","numerosity","html-keyboard-response","86","259946","0.0-31.0-1.0","null","[Dot display: left=300, right=268, diff=32]","null","","-1","-1","300","268","32","","","","","","","","","","","","","","","","","","","","","","","","","","","","","","","","",""
"","confidence_first","html-keyboard-response","87","262124","0.0-31.0-2.0","2177","Confidence judgement (first response)","","","-1","-1","","","","right","50.75","50","50.75","false","34","","","","","","","","","","","","","","","","","","","","","","","","","","",""
"","expInstructions","html-button-response","88","265347","0.0-32.0-0.0","3223","expInstruc","0","","","","","","","","","","","","","","","","","","","","","","","","","","","","","","","","","","","","","","",""
"","expInstructions","html-button-response","89","270034","0.0-32.0-0.1","4686","expInstruc","0","","","","","","","","","","","","","","","","","","","","","","","","","","","","","","","","","","","","","","",""
"","expInstructions","html-button-response","90","271957","0.0-32.0-0.2","1922","expInstruc","0","","","","","","","","","","","","","","","","","","","","","","","","","","","","","","","","","","","","","","",""
"","expInstructions","html-button-response","91","274173","0.0-32.0-0.3","2216","expInstruc","0","","","","","","","","","","","","","","","","","","","","","","","","","","","","","","","","","","","","","","",""
"","expInstructions","html-button-response","92","275174","0.0-32.0-0.4","1000","expInstruc","0","","","","","","","","","","","","","","","","","","","","","","","","","","","","","","","","","","","","","","",""
"","expInstructions","html-button-response","93","280100","0.0-32.0-0.5","4925","expInstruc","0","","","","","","","","","","","","","","","","","","","","","","","","","","","","","","","","","","","","","","",""
"","expInstructions","html-button-response","94","281465","0.0-32.0-0.6","1365","expInstruc","0","","","","","","","","","","","","","","","","","","","","","","","","","","","","","","","","","","","","","","",""
"","expInstructions","html-button-response","95","285000","0.0-32.0-0.7","3534","expInstruc","0","","","","","","","","","","","","","","","","","","","","","","","","","","","","","","","","","","","","","","",""
"","expInstructions","html-button-response","96","290633","0.0-32.0-0.8","5633","expInstruc","0","","","","","","","","","","","","","","","","","","","","","","","","","","","","","","","","","","","","","","",""
"","expInstructions","html-button-response","97","292721","0.0-32.0-0.9","2087","expInstruc","0","","","","","","","","","","","","","","","","","","","","","","","","","","","","","","","","","","","","","","",""
"","expInstructions","html-button-response","98","294065","0.0-32.0-0.10","1343","expInstruc","0","","","","","","","","","","","","","","","","","","","","","","","","","","","","","","","","","","","","","","",""
"","expInstructions","html-button-response","99","303152","0.0-32.0-0.11","9087","expInstruc","0","","","","","","","","","","","","","","","","","","","","","","","","","","","","","","","","","","","","","","",""
"","expInstructions","html-button-response","100","304208","0.0-32.0-0.12","1056","expInstruc","0","","","","","","","","","","","","","","","","","","","","","","","","","","","","","","","","","","","","","","",""
"","block_message","html-button-response","101","307072","0.0-33.0","2861","block message","0","","","","","","","","","","","","","1","","","","","","","","","","","","","","","","","","","","","","","","","",""
"","fixation","html-keyboard-response","102","308392","0.0-34.0-0.0","null","fixation","null","","-1","-1","","","","","","","","","","","","","","","","","","","","","","","","","","","","","","","","","","","",""
"","numerosity","html-keyboard-response","103","308897","0.0-34.0-1.0","null","[Dot display: left=266, right=300, diff=34]","null","","-1","-1","266","300","34","","","","","","","","","","","","","","","","","","","","","","","","","","","","","","","","",""
"","confidence_first","html-keyboard-response","104","311865","0.0-34.0-2.0","2967.100000023842","Confidence judgement (first response)","","","-1","-1","","","","left","67.75","67.75","50","false","37","","","","","","","","","","","","","","","","","","","","","","","","","","",""
"","advice_choice","html-button-response","105","313859","0.0-34.0-3.0-0.0","1993","[advice choice Y,N]","0","","-1","-1","","","","","","","","","","","","","","","","","","","","","","","","","","","","","","","","","","","",""
"","show_advice","html-keyboard-response","106","314661","0.0-34.0-3.0-1.0-0.0","null","[advice: right]","null","","-1","-1","","","","","","","","","","","right","","","","","","","","","","","","","","","","","","","","","","","","",""
"","confidence_second","html-keyboard-response","107","316497","0.0-34.0-6.0","1834.8999999761581","Confidence judgment (second response)","","","-1","-1","","","","left","67.75","67.75","50","false","37","","","","","","","","","","","","","","","","","","","","","","","","","","",""
"","consolidated-trial-data","consolidated-trial-data","108","316497","0.0-35.0","null","consolidated-trial-data","null","","","","","","","","","","","","","","","0","0","0","266","300","34","left","67.75","false","2967.100000023842","1","yes","right","left","67.75","true","false","1834.8999999761581","","","","","","",""
"","fixation","html-keyboard-response","109","317756","0.0-36.0-0.0","null","fixation","null","","-1","-1","","","","","","","","","","","","","","","","","","","","","","","","","","","","","","","","","","","",""
"","numerosity","html-keyboard-response","110","318259","0.0-36.0-1.0","null","[Dot display: left=263, right=300, diff=37]","null","","-1","-1","263","300","37","","","","","","","","","","","","","","","","","","","","","","","","","","","","","","","","",""
"","confidence_first","html-keyboard-response","111","320683","0.0-36.0-2.0","2423.100000023842","Confidence judgement (first response)","","","-1","-1","","","","left","65","65","50","false","40","","","","","","","","","","","","","","","","","","","","","","","","","","",""
"","no_advice_display","html-button-response","112","322485","0.0-36.0-5.0-0.0","1802","noAdvice","0","","-1","-1","","","","","","","","","","","","","","","","","","","","","","","","","","","","","","","","","","","",""
"","blank_screen","html-keyboard-response","113","323287","0.0-36.0-5.0-1.0","null","blank","null","","-1","-1","","","","","","","","","","","","","","","","","","","","","","","","","","","","","","","","","","","",""
"","confidence_second","html-keyboard-response","114","326425","0.0-36.0-6.0","3138","Confidence judgment (second response)","","","-1","-1","","","","left","65","65","50","false","40","","","","","","","","","","","","","","","","","","","","","","","","","","",""
"","consolidated-trial-data","consolidated-trial-data","115","326426","0.0-37.0","null","consolidated-trial-data","null","","","","","","","","","","","","","","","0","1","1","263","300","37","left","65","false","2423.100000023842","3","yes","right","left","65","true","false","3138","","","","","","",""
"","fixation","html-keyboard-response","116","327833","0.0-38.0-0.0","null","fixation","null","","-1","-1","","","","","","","","","","","","","","","","","","","","","","","","","","","","","","","","","","","",""
"","numerosity","html-keyboard-response","117","328335","0.0-38.0-1.0","null","[Dot display: left=260, right=300, diff=40]","null","","-1","-1","260","300","40","","","","","","","","","","","","","","","","","","","","","","","","","","","","","","","","",""
"","confidence_first","html-keyboard-response","118","332312","0.0-38.0-2.0","3976","Confidence judgement (first response)","","","-1","-1","","","","right","59.75","50","59.75","true","40","","","","","","","","","","","","","","","","","","","","","","","","","","",""
"","forced_advice_display","html-button-response","119","333670","0.0-38.0-4.0-0.0","1357","forcedAdvice","0","","-1","-1","","","","","","","","","","","","","","","","","","","","","","","","","","","","","","","","","","","",""
"","show_advice","html-keyboard-response","120","334471","0.0-38.0-4.0-1.0","null","[advice: right]","null","","-1","-1","","","","","","","","","","","right","","","","","","","","","","","","","","","","","","","","","","","","",""
"","confidence_second","html-keyboard-response","121","337317","0.0-38.0-6.0","2845.100000023842","Confidence judgment (second response)","","","-1","-1","","","","right","65.25","50","65.25","true","40","","","","","","","","","","","","","","","","","","","","","","","","","","",""
"","consolidated-trial-data","consolidated-trial-data","122","337317","0.0-39.0","null","consolidated-trial-data","null","","","","","","","","","","","","","","","0","2","2","260","300","40","right","59.75","true","3976","2","yes","right","right","65.25","true","true","2845.100000023842","","","","","","",""
"","fixation","html-keyboard-response","123","338764","0.0-40.0-0.0","null","fixation","null","","-1","-1","","","","","","","","","","","","","","","","","","","","","","","","","","","","","","","","","","","",""
"","numerosity","html-keyboard-response","124","339267","0.0-40.0-1.0","null","[Dot display: left=300, right=260, diff=40]","null","","-1","-1","300","260","40","","","","","","","","","","","","","","","","","","","","","","","","","","","","","","","","",""
"","confidence_first","html-keyboard-response","125","342717","0.0-40.0-2.0","3449.6999999284744","Confidence judgement (first response)","","","-1","-1","","","","left","74.75","74.75","50","true","39","","","","","","","","","","","","","","","","","","","","","","","","","","",""
"","advice_choice","html-button-response","126","344385","0.0-40.0-3.0-0.0","1668","[advice choice Y,N]","0","","-1","-1","","","","","","","","","","","","","","","","","","","","","","","","","","","","","","","","","","","",""
"","show_advice","html-keyboard-response","127","345187","0.0-40.0-3.0-1.0-0.0","null","[advice: left]","null","","-1","-1","","","","","","","","","","","left","","","","","","","","","","","","","","","","","","","","","","","","",""
"","confidence_second","html-keyboard-response","128","346577","0.0-40.0-6.0","1389.8999999761581","Confidence judgment (second response)","","","-1","-1","","","","left","74.75","74.75","50","true","39","","","","","","","","","","","","","","","","","","","","","","","","","","",""
"","consolidated-trial-data","consolidated-trial-data","129","346578","0.0-41.0","null","consolidated-trial-data","null","","","","","","","","","","","","","","","0","3","3","300","260","40","left","74.75","true","3449.6999999284744","1","yes","left","left","74.75","true","true","1389.8999999761581","","","","","","",""
"","fixation","html-keyboard-response","130","347884","0.0-42.0-0.0","null","fixation","null","","-1","-1","","","","","","","","","","","","","","","","","","","","","","","","","","","","","","","","","","","",""
"","numerosity","html-keyboard-response","131","348391","0.0-42.0-1.0","null","[Dot display: left=300, right=261, diff=39]","null","","-1","-1","300","261","39","","","","","","","","","","","","","","","","","","","","","","","","","","","","","","","","",""
"","confidence_first","html-keyboard-response","132","351860","0.0-42.0-2.0","3468.2000000476837","Confidence judgement (first response)","","","-1","-1","","","","right","71","50","71","false","42","","","","","","","","","","","","","","","","","","","","","","","","","","",""
"","advice_choice","html-button-response","133","353155","0.0-42.0-3.0-0.0","1294","[advice choice Y,N]","0","","-1","-1","","","","","","","","","","","","","","","","","","","","","","","","","","","","","","","","","","","",""
"","show_advice","html-keyboard-response","134","353957","0.0-42.0-3.0-1.0-0.0","null","[advice: left]","null","","-1","-1","","","","","","","","","","","left","","","","","","","","","","","","","","","","","","","","","","","","",""
"","confidence_second","html-keyboard-response","135","355093","0.0-42.0-6.0","1135.8000000715256","Confidence judgment (second response)","","","-1","-1","","","","right","71","50","71","false","42","","","","","","","","","","","","","","","","","","","","","","","","","","",""
"","consolidated-trial-data","consolidated-trial-data","136","355094","0.0-43.0","null","consolidated-trial-data","null","","","","","","","","","","","","","","","0","4","4","300","261","39","right","71","false","3468.2000000476837","1","yes","left","right","71","true","false","1135.8000000715256","","","","","","",""
"","fixation","html-keyboard-response","137","356305","0.0-44.0-0.0","null","fixation","null","","-1","-1","","","","","","","","","","","","","","","","","","","","","","","","","","","","","","","","","","","",""
"","numerosity","html-keyboard-response","138","356808","0.0-44.0-1.0","null","[Dot display: left=300, right=258, diff=42]","null","","-1","-1","300","258","42","","","","","","","","","","","","","","","","","","","","","","","","","","","","","","","","",""
"","confidence_first","html-keyboard-response","139","359239","0.0-44.0-2.0","2431.0999999046326","Confidence judgement (first response)","","","-1","-1","","","","left","80.5","80.5","50","true","41","","","","","","","","","","","","","","","","","","","","","","","","","","",""
"","no_advice_display","html-button-response","140","360383","0.0-44.0-5.0-0.0","1143","noAdvice","0","","-1","-1","","","","","","","","","","","","","","","","","","","","","","","","","","","","","","","","","","","",""
"","blank_screen","html-keyboard-response","141","361185","0.0-44.0-5.0-1.0","null","blank","null","","-1","-1","","","","","","","","","","","","","","","","","","","","","","","","","","","","","","","","","","","",""
"","confidence_second","html-keyboard-response","142","362584","0.0-44.0-6.0","1397.5","Confidence judgment (second response)","","","-1","-1","","","","left","80.5","80.5","50","true","41","","","","","","","","","","","","","","","","","","","","","","","","","","",""
"","consolidated-trial-data","consolidated-trial-data","143","362584","0.0-45.0","null","consolidated-trial-data","null","","","","","","","","","","","","","","","0","5","5","300","258","42","left","80.5","true","2431.0999999046326","3","yes","left","left","80.5","true","true","1397.5","","","","","","",""
"","fixation","html-keyboard-response","144","363936","0.0-46.0-0.0","null","fixation","null","","-1","-1","","","","","","","","","","","","","","","","","","","","","","","","","","","","","","","","","","","",""
"","numerosity","html-keyboard-response","145","364439","0.0-46.0-1.0","null","[Dot display: left=300, right=259, diff=41]","null","","-1","-1","300","259","41","","","","","","","","","","","","","","","","","","","","","","","","","","","","","","","","",""
"","confidence_first","html-keyboard-response","146","366987","0.0-46.0-2.0","2544.600000023842","Confidence judgement (first response)","","","-1","-1","","","","right","86","50","86","false","44","","","","","","","","","","","","","","","","","","","","","","","","","","",""
"","forced_advice_display","html-button-response","147","368000","0.0-46.0-4.0-0.0","1012","forcedAdvice","0","","-1","-1","","","","","","","","","","","","","","","","","","","","","","","","","","","","","","","","","","","",""
"","show_advice","html-keyboard-response","148","368802","0.0-46.0-4.0-1.0","null","[advice: left]","null","","-1","-1","","","","","","","","","","","left","","","","","","","","","","","","","","","","","","","","","","","","",""
"","confidence_second","html-keyboard-response","149","370066","0.0-46.0-6.0","1263.1000000238419","Confidence judgment (second response)","","","-1","-1","","","","right","86","50","86","false","44","","","","","","","","","","","","","","","","","","","","","","","","","","",""
"","consolidated-trial-data","consolidated-trial-data","150","370067","0.0-47.0","null","consolidated-trial-data","null","","","","","","","","","","","","","","","0","6","6","300","259","41","right","86","false","2544.600000023842","2","yes","left","right","86","true","false","1263.1000000238419","","","","","","",""
"","fixation","html-keyboard-response","151","371319","0.0-48.0-0.0","null","fixation","null","","-1","-1","","","","","","","","","","","","","","","","","","","","","","","","","","","","","","","","","","","",""
"","numerosity","html-keyboard-response","152","371822","0.0-48.0-1.0","null","[Dot display: left=256, right=300, diff=44]","null","","-1","-1","256","300","44","","","","","","","","","","","","","","","","","","","","","","","","","","","","","","","","",""
"","confidence_first","html-keyboard-response","153","374498","0.0-48.0-2.0","2675.899999976158","Confidence judgement (first response)","","","-1","-1","","","","left","57.5","57.5","50","false","48","","","","","","","","","","","","","","","","","","","","","","","","","","",""
"","forced_advice_display","html-button-response","154","376688","0.0-48.0-4.0-0.0","2186","forcedAdvice","0","","-1","-1","","","","","","","","","","","","","","","","","","","","","","","","","","","","","","","","","","","",""
"","show_advice","html-keyboard-response","155","377491","0.0-48.0-4.0-1.0","null","[advice: left]","null","","-1","-1","","","","","","","","","","","left","","","","","","","","","","","","","","","","","","","","","","","","",""
"","confidence_second","html-keyboard-response","156","380082","0.0-48.0-6.0","2590.5","Confidence judgment (second response)","","","-1","-1","","","","left","68.5","68.5","50","false","48","","","","","","","","","","","","","","","","","","","","","","","","","","",""
"","consolidated-trial-data","consolidated-trial-data","157","380083","0.0-49.0","null","consolidated-trial-data","null","","","","","","","","","","","","","","","0","7","7","256","300","44","left","57.5","false","2675.899999976158","2","yes","left","left","68.5","false","false","2590.5","","","","","","",""
"","fixation","html-keyboard-response","158","381452","0.0-50.0-0.0","null","fixation","null","","-1","-1","","","","","","","","","","","","","","","","","","","","","","","","","","","","","","","","","","","",""
"","numerosity","html-keyboard-response","159","381956","0.0-50.0-1.0","null","[Dot display: left=252, right=300, diff=48]","null","","-1","-1","252","300","48","","","","","","","","","","","","","","","","","","","","","","","","","","","","","","","","",""
"","confidence_first","html-keyboard-response","160","383934","0.0-50.0-2.0","1977.2000000476837","Confidence judgement (first response)","","","-1","-1","","","","right","75.25","50","75.25","true","47","","","","","","","","","","","","","","","","","","","","","","","","","","",""
"","no_advice_display","html-button-response","161","385547","0.0-50.0-5.0-0.0","1613","noAdvice","0","","-1","-1","","","","","","","","","","","","","","","","","","","","","","","","","","","","","","","","","","","",""
"","blank_screen","html-keyboard-response","162","386348","0.0-50.0-5.0-1.0","null","blank","null","","-1","-1","","","","","","","","","","","","","","","","","","","","","","","","","","","","","","","","","","","",""
"","confidence_second","html-keyboard-response","163","388421","0.0-50.0-6.0","2072.1999999284744","Confidence judgment (second response)","","","-1","-1","","","","right","75.25","50","75.25","true","47","","","","","","","","","","","","","","","","","","","","","","","","","","",""
"","consolidated-trial-data","consolidated-trial-data","164","388422","0.0-51.0","null","consolidated-trial-data","null","","","","","","","","","","","","","","","0","8","8","252","300","48","right","75.25","true","1977.2000000476837","3","yes","left","right","75.25","false","true","2072.1999999284744","","","","","","",""
"","fixation","html-keyboard-response","165","389670","0.0-52.0-0.0","null","fixation","null","","-1","-1","","","","","","","","","","","","","","","","","","","","","","","","","","","","","","","","","","","",""
"","numerosity","html-keyboard-response","166","390174","0.0-52.0-1.0","null","[Dot display: left=300, right=253, diff=47]","null","","-1","-1","300","253","47","","","","","","","","","","","","","","","","","","","","","","","","","","","","","","","","",""
"","confidence_first","html-keyboard-response","167","394727","0.0-52.0-2.0","4553.199999928474","Confidence judgement (first response)","","","-1","-1","","","","left","78.5","78.5","50","true","46","","","","","","","","","","","","","","","","","","","","","","","","","","",""
"","advice_choice","html-button-response","168","396197","0.0-52.0-3.0-0.0","1469","[advice choice Y,N]","0","","-1","-1","","","","","","","","","","","","","","","","","","","","","","","","","","","","","","","","","","","",""
"","show_advice","html-keyboard-response","169","396998","0.0-52.0-3.0-1.0-0.0","null","[advice: left]","null","","-1","-1","","","","","","","","","","","left","","","","","","","","","","","","","","","","","","","","","","","","",""
"","confidence_second","html-keyboard-response","170","400057","0.0-52.0-6.0","3058.100000023842","Confidence judgment (second response)","","","-1","-1","","","","left","87","87","50","true","46","","","","","","","","","","","","","","","","","","","","","","","","","","",""
"","consolidated-trial-data","consolidated-trial-data","171","400058","0.0-53.0","null","consolidated-trial-data","null","","","","","","","","","","","","","","","0","9","9","300","253","47","left","78.5","true","4553.199999928474","1","yes","left","left","87","true","true","3058.100000023842","","","","","","",""
"","fixation","html-keyboard-response","172","401544","0.0-54.0-0.0","null","fixation","null","","-1","-1","","","","","","","","","","","","","","","","","","","","","","","","","","","","","","","","","","","",""
"","numerosity","html-keyboard-response","173","402046","0.0-54.0-1.0","null","[Dot display: left=254, right=300, diff=46]","null","","-1","-1","254","300","46","","","","","","","","","","","","","","","","","","","","","","","","","","","","","","","","",""
"","confidence_first","html-keyboard-response","174","405792","0.0-54.0-2.0","3745.600000023842","Confidence judgement (first response)","","","-1","-1","","","","right","74.25","50","74.25","true","45","","","","","","","","","","","","","","","","","","","","","","","","","","",""
"","no_advice_display","html-button-response","175","407364","0.0-54.0-5.0-0.0","1572","noAdvice","0","","-1","-1","","","","","","","","","","","","","","","","","","","","","","","","","","","","","","","","","","","",""
"","blank_screen","html-keyboard-response","176","408167","0.0-54.0-5.0-1.0","null","blank","null","","-1","-1","","","","","","","","","","","","","","","","","","","","","","","","","","","","","","","","","","","",""
"","confidence_second","html-keyboard-response","177","409390","0.0-54.0-6.0","1222","Confidence judgment (second response)","","","-1","-1","","","","right","74.25","50","74.25","true","45","","","","","","","","","","","","","","","","","","","","","","","","","","",""
"","consolidated-trial-data","consolidated-trial-data","178","409390","0.0-55.0","null","consolidated-trial-data","null","","","","","","","","","","","","","","","0","10","10","254","300","46","right","74.25","true","3745.600000023842","3","yes","left","right","74.25","false","true","1222","","","","","","",""
"","fixation","html-keyboard-response","179","410703","0.0-56.0-0.0","null","fixation","null","","-1","-1","","","","","","","","","","","","","","","","","","","","","","","","","","","","","","","","","","","",""
"","numerosity","html-keyboard-response","180","411206","0.0-56.0-1.0","null","[Dot display: left=300, right=255, diff=45]","null","","-1","-1","300","255","45","","","","","","","","","","","","","","","","","","","","","","","","","","","","","","","","",""
"","confidence_first","html-keyboard-response","181","413258","0.0-56.0-2.0","2051","Confidence judgement (first response)","","","-1","-1","","","","left","85.5","85.5","50","true","45","","","","","","","","","","","","","","","","","","","","","","","","","","",""
"","no_advice_display","html-button-response","182","414219","0.0-56.0-5.0-0.0","961","noAdvice","0","","-1","-1","","","","","","","","","","","","","","","","","","","","","","","","","","","","","","","","","","","",""
"","blank_screen","html-keyboard-response","183","415021","0.0-56.0-5.0-1.0","null","blank","null","","-1","-1","","","","","","","","","","","","","","","","","","","","","","","","","","","","","","","","","","","",""
"","confidence_second","html-keyboard-response","184","415966","0.0-56.0-6.0","944.8999999761581","Confidence judgment (second response)","","","-1","-1","","","","left","85.5","85.5","50","true","45","","","","","","","","","","","","","","","","","","","","","","","","","","",""
"","consolidated-trial-data","consolidated-trial-data","185","415967","0.0-57.0","null","consolidated-trial-data","null","","","","","","","","","","","","","","","0","11","11","300","255","45","left","85.5","true","2051","3","yes","left","left","85.5","true","true","944.8999999761581","","","","","","",""
"","fixation","html-keyboard-response","186","417252","0.0-58.0-0.0","null","fixation","null","","-1","-1","","","","","","","","","","","","","","","","","","","","","","","","","","","","","","","","","","","",""
"","numerosity","html-keyboard-response","187","417754","0.0-58.0-1.0","null","[Dot display: left=300, right=255, diff=45]","null","","-1","-1","300","255","45","","","","","","","","","","","","","","","","","","","","","","","","","","","","","","","","",""
"","confidence_first","html-keyboard-response","188","419747","0.0-58.0-2.0","1992.1000000238419","Confidence judgement (first response)","","","-1","-1","","","","left","94.25","94.25","50","true","44","","","","","","","","","","","","","","","","","","","","","","","","","","",""
"","forced_advice_display","html-button-response","189","421121","0.0-58.0-4.0-0.0","1373","forcedAdvice","0","","-1","-1","","","","","","","","","","","","","","","","","","","","","","","","","","","","","","","","","","","",""
"","show_advice","html-keyboard-response","190","421922","0.0-58.0-4.0-1.0","null","[advice: left]","null","","-1","-1","","","","","","","","","","","left","","","","","","","","","","","","","","","","","","","","","","","","",""
"","confidence_second","html-keyboard-response","191","422971","0.0-58.0-6.0","1048.5","Confidence judgment (second response)","","","-1","-1","","","","left","94.25","94.25","50","true","44","","","","","","","","","","","","","","","","","","","","","","","","","","",""
"","consolidated-trial-data","consolidated-trial-data","192","422972","0.0-59.0","null","consolidated-trial-data","null","","","","","","","","","","","","","","","0","12","12","300","255","45","left","94.25","true","1992.1000000238419","2","yes","left","left","94.25","true","true","1048.5","","","","","","",""
"","fixation","html-keyboard-response","193","424250","0.0-60.0-0.0","null","fixation","null","","-1","-1","","","","","","","","","","","","","","","","","","","","","","","","","","","","","","","","","","","",""
"","numerosity","html-keyboard-response","194","424752","0.0-60.0-1.0","null","[Dot display: left=256, right=300, diff=44]","null","","-1","-1","256","300","44","","","","","","","","","","","","","","","","","","","","","","","","","","","","","","","","",""
"","confidence_first","html-keyboard-response","195","427373","0.0-60.0-2.0","2619.100000023842","Confidence judgement (first response)","","","-1","-1","","","","right","80.5","50","80.5","true","43","","","","","","","","","","","","","","","","","","","","","","","","","","",""
"","advice_choice","html-button-response","196","428698","0.0-60.0-3.0-0.0","1324","[advice choice Y,N]","0","","-1","-1","","","","","","","","","","","","","","","","","","","","","","","","","","","","","","","","","","","",""
"","show_advice","html-keyboard-response","197","429500","0.0-60.0-3.0-1.0-0.0","null","[advice: left]","null","","-1","-1","","","","","","","","","","","left","","","","","","","","","","","","","","","","","","","","","","","","",""
"","confidence_second","html-keyboard-response","198","430683","0.0-60.0-6.0","1182.2000000476837","Confidence judgment (second response)","","","-1","-1","","","","right","80.5","50","80.5","true","43","","","","","","","","","","","","","","","","","","","","","","","","","","",""
"","consolidated-trial-data","consolidated-trial-data","199","430683","0.0-61.0","null","consolidated-trial-data","null","","","","","","","","","","","","","","","0","13","13","256","300","44","right","80.5","true","2619.100000023842","1","yes","left","right","80.5","false","true","1182.2000000476837","","","","","","",""
"","fixation","html-keyboard-response","200","432112","0.0-62.0-0.0","null","fixation","null","","-1","-1","","","","","","","","","","","","","","","","","","","","","","","","","","","","","","","","","","","",""
"","numerosity","html-keyboard-response","201","432615","0.0-62.0-1.0","null","[Dot display: left=300, right=257, diff=43]","null","","-1","-1","300","257","43","","","","","","","","","","","","","","","","","","","","","","","","","","","","","","","","",""
"","confidence_first","html-keyboard-response","202","435035","0.0-62.0-2.0","2419.5","Confidence judgement (first response)","","","-1","-1","","","","left","89.75","89.75","50","true","43","","","","","","","","","","","","","","","","","","","","","","","","","","",""
"","forced_advice_display","html-button-response","203","436482","0.0-62.0-4.0-0.0","1446","forcedAdvice","0","","-1","-1","","","","","","","","","","","","","","","","","","","","","","","","","","","","","","","","","","","",""
"","show_advice","html-keyboard-response","204","437283","0.0-62.0-4.0-1.0","null","[advice: left]","null","","-1","-1","","","","","","","","","","","left","","","","","","","","","","","","","","","","","","","","","","","","",""
"","confidence_second","html-keyboard-response","205","439412","0.0-62.0-6.0","2128.1999999284744","Confidence judgment (second response)","","","-1","-1","","","","left","98.25","98.25","50","true","43","","","","","","","","","","","","","","","","","","","","","","","","","","",""
"","consolidated-trial-data","consolidated-trial-data","206","439413","0.0-63.0","null","consolidated-trial-data","null","","","","","","","","","","","","","","","0","14","14","300","257","43","left","89.75","true","2419.5","2","yes","left","left","98.25","true","true","2128.1999999284744","","","","","","",""
"","block_message","html-button-response","207","543364","0.0-64.0","103949","block message","0","","","","","","","","","","","","","2","","","","","","","","","","","","","","","","","","","","","","","","","",""
"","fixation","html-keyboard-response","208","544786","0.0-65.0-0.0","null","fixation","null","","-1","-1","","","","","","","","","","","","","","","","","","","","","","","","","","","","","","","","","","","",""
"","numerosity","html-keyboard-response","209","545288","0.0-65.0-1.0","null","[Dot display: left=257, right=300, diff=43]","null","","-1","-1","257","300","43","","","","","","","","","","","","","","","","","","","","","","","","","","","","","","","","",""
"","confidence_first","html-keyboard-response","210","548192","0.0-65.0-2.0","2902.399999976158","Confidence judgement (first response)","","","-1","-1","","","","left","90.75","90.75","50","false","45","","","","","","","","","","","","","","","","","","","","","","","","","","",""
"","advice_choice","html-button-response","211","549264","0.0-65.0-3.0-0.0","1071","[advice choice Y,N]","0","","-1","-1","","","","","","","","","","","","","","","","","","","","","","","","","","","","","","","","","","","",""
"","show_advice","html-keyboard-response","212","550066","0.0-65.0-3.0-1.0-0.0","null","[advice: right]","null","","-1","-1","","","","","","","","","","","right","","","","","","","","","","","","","","","","","","","","","","","","",""
"","confidence_second","html-keyboard-response","213","550942","0.0-65.0-6.0","874.5999999046326","Confidence judgment (second response)","","","-1","-1","","","","left","90.75","90.75","50","false","45","","","","","","","","","","","","","","","","","","","","","","","","","","",""
"","consolidated-trial-data","consolidated-trial-data","214","550942","0.0-66.0","null","consolidated-trial-data","null","","","","","","","","","","","","","","","1","0","15","257","300","43","left","90.75","false","2902.399999976158","1","yes","right","left","90.75","true","false","874.5999999046326","","","","","","",""
"","fixation","html-keyboard-response","215","552384","0.0-67.0-0.0","null","fixation","null","","-1","-1","","","","","","","","","","","","","","","","","","","","","","","","","","","","","","","","","","","",""
"","numerosity","html-keyboard-response","216","552886","0.0-67.0-1.0","null","[Dot display: left=300, right=255, diff=45]","null","","-1","-1","300","255","45","","","","","","","","","","","","","","","","","","","","","","","","","","","","","","","","",""
"","confidence_first","html-keyboard-response","217","554968","0.0-67.0-2.0","2080.399999976158","Confidence judgement (first response)","","","-1","-1","","","","left","55.25","55.25","50","true","45","","","","","","","","","","","","","","","","","","","","","","","","","","",""
"","no_advice_display","html-button-response","218","556151","0.0-67.0-5.0-0.0","1182","noAdvice","0","","-1","-1","","","","","","","","","","","","","","","","","","","","","","","","","","","","","","","","","","","",""
"","blank_screen","html-keyboard-response","219","556953","0.0-67.0-5.0-1.0","null","blank","null","","-1","-1","","","","","","","","","","","","","","","","","","","","","","","","","","","","","","","","","","","",""
"","confidence_second","html-keyboard-response","220","557898","0.0-67.0-6.0","945.2000000476837","Confidence judgment (second response)","","","-1","-1","","","","left","55.25","55.25","50","true","45","","","","","","","","","","","","","","","","","","","","","","","","","","",""
"","consolidated-trial-data","consolidated-trial-data","221","557899","0.0-68.0","null","consolidated-trial-data","null","","","","","","","","","","","","","","","1","1","16","300","255","45","left","55.25","true","2080.399999976158","3","yes","right","left","55.25","false","true","945.2000000476837","","","","","","",""
"","attncheck","html-button-response","222","562942","0.0-69.0","5042","attncheck","2","","","","","","","","","","","","","","","","","","","","","","","","","","","","","","","","","true","Next","","","","",""
"","fixation","html-keyboard-response","223","564193","0.0-70.0-0.0","null","fixation","null","","-1","-1","","","","","","","","","","","","","","","","","","","","","","","","","","","","","","","","","","","",""
"","numerosity","html-keyboard-response","224","564696","0.0-70.0-1.0","null","[Dot display: left=255, right=300, diff=45]","null","","-1","-1","255","300","45","","","","","","","","","","","","","","","","","","","","","","","","","","","","","","","","",""
"","confidence_first","html-keyboard-response","225","567391","0.0-70.0-2.0","2693.6999999284744","Confidence judgement (first response)","","","-1","-1","","","","left","59.5","59.5","50","false","47","","","","","","","","","","","","","","","","","","","","","","","","","","",""
"","forced_advice_display","html-button-response","226","568455","0.0-70.0-4.0-0.0","1064","forcedAdvice","0","","-1","-1","","","","","","","","","","","","","","","","","","","","","","","","","","","","","","","","","","","",""
"","show_advice","html-keyboard-response","227","569257","0.0-70.0-4.0-1.0","null","[advice: right]","null","","-1","-1","","","","","","","","","","","right","","","","","","","","","","","","","","","","","","","","","","","","",""
"","confidence_second","html-keyboard-response","228","571816","0.0-70.0-6.0","2557.899999976158","Confidence judgment (second response)","","","-1","-1","","","","right","63.75","50","63.75","true","47","","","","","","","","","","","","","","","","","","","","","","","","","","",""
"","consolidated-trial-data","consolidated-trial-data","229","571816","0.0-71.0","null","consolidated-trial-data","null","","","","","","","","","","","","","","","1","2","17","255","300","45","left","59.5","false","2693.6999999284744","2","yes","right","right","63.75","true","true","2557.899999976158","","","","","","",""
"","fixation","html-keyboard-response","230","573200","0.0-72.0-0.0","null","fixation","null","","-1","-1","","","","","","","","","","","","","","","","","","","","","","","","","","","","","","","","","","","",""
"","numerosity","html-keyboard-response","231","573703","0.0-72.0-1.0","null","[Dot display: left=300, right=253, diff=47]","null","","-1","-1","300","253","47","","","","","","","","","","","","","","","","","","","","","","","","","","","","","","","","",""
"","confidence_first","html-keyboard-response","232","575795","0.0-72.0-2.0","2091.6999999284744","Confidence judgement (first response)","","","-1","-1","","","","left","62.25","62.25","50","true","46","","","","","","","","","","","","","","","","","","","","","","","","","","",""
"","advice_choice","html-button-response","233","577089","0.0-72.0-3.0-0.0","1293","[advice choice Y,N]","0","","-1","-1","","","","","","","","","","","","","","","","","","","","","","","","","","","","","","","","","","","",""
"","show_advice","html-keyboard-response","234","577890","0.0-72.0-3.0-1.0-0.0","null","[advice: left]","null","","-1","-1","","","","","","","","","","","left","","","","","","","","","","","","","","","","","","","","","","","","",""
"","confidence_second","html-keyboard-response","235","580695","0.0-72.0-6.0","2804","Confidence judgment (second response)","","","-1","-1","","","","left","73.5","73.5","50","true","46","","","","","","","","","","","","","","","","","","","","","","","","","","",""
"","consolidated-trial-data","consolidated-trial-data","236","580696","0.0-73.0","null","consolidated-trial-data","null","","","","","","","","","","","","","","","1","3","18","300","253","47","left","62.25","true","2091.6999999284744","1","yes","left","left","73.5","true","true","2804","","","","","","",""
"","fixation","html-keyboard-response","237","582050","0.0-74.0-0.0","null","fixation","null","","-1","-1","","","","","","","","","","","","","","","","","","","","","","","","","","","","","","","","","","","",""
"","numerosity","html-keyboard-response","238","582553","0.0-74.0-1.0","null","[Dot display: left=254, right=300, diff=46]","null","","-1","-1","254","300","46","","","","","","","","","","","","","","","","","","","","","","","","","","","","","","","","",""
"","confidence_first","html-keyboard-response","239","584993","0.0-74.0-2.0","2438.0999999046326","Confidence judgement (first response)","","","-1","-1","","","","right","60.25","50","60.25","true","46","","","","","","","","","","","","","","","","","","","","","","","","","","",""
"","advice_choice","html-button-response","240","586684","0.0-74.0-3.0-0.0","1690","[advice choice Y,N]","0","","-1","-1","","","","","","","","","","","","","","","","","","","","","","","","","","","","","","","","","","","",""
"","show_advice","html-keyboard-response","241","587486","0.0-74.0-3.0-1.0-0.0","null","[advice: left]","null","","-1","-1","","","","","","","","","","","left","","","","","","","","","","","","","","","","","","","","","","","","",""
"","confidence_second","html-keyboard-response","242","588329","0.0-74.0-6.0","841.5","Confidence judgment (second response)","","","-1","-1","","","","right","60.25","50","60.25","true","46","","","","","","","","","","","","","","","","","","","","","","","","","","",""
"","consolidated-trial-data","consolidated-trial-data","243","588329","0.0-75.0","null","consolidated-trial-data","null","","","","","","","","","","","","","","","1","4","19","254","300","46","right","60.25","true","2438.0999999046326","1","yes","left","right","60.25","false","true","841.5","","","","","","",""
"","attncheck","html-button-response","244","590997","0.0-76.0","2667","attncheck","0","","","","","","","","","","","","","","","","","","","","","","","","","","","","","","","","","true","Stop","","","","",""
"","fixation","html-keyboard-response","245","592370","0.0-77.0-0.0","null","fixation","null","","-1","-1","","","","","","","","","","","","","","","","","","","","","","","","","","","","","","","","","","","",""
"","numerosity","html-keyboard-response","246","592872","0.0-77.0-1.0","null","[Dot display: left=300, right=254, diff=46]","null","","-1","-1","300","254","46","","","","","","","","","","","","","","","","","","","","","","","","","","","","","","","","",""
"","confidence_first","html-keyboard-response","247","595684","0.0-77.0-2.0","2810.899999976158","Confidence judgement (first response)","","","-1","-1","","","","left","85.25","85.25","50","true","45","","","","","","","","","","","","","","","","","","","","","","","","","","",""
"","no_advice_display","html-button-response","248","596899","0.0-77.0-5.0-0.0","1215","noAdvice","0","","-1","-1","","","","","","","","","","","","","","","","","","","","","","","","","","","","","","","","","","","",""
"","blank_screen","html-keyboard-response","249","597701","0.0-77.0-5.0-1.0","null","blank","null","","-1","-1","","","","","","","","","","","","","","","","","","","","","","","","","","","","","","","","","","","",""
"","confidence_second","html-keyboard-response","250","598703","0.0-77.0-6.0","1000.8000000715256","Confidence judgment (second response)","","","-1","-1","","","","left","85.25","85.25","50","true","45","","","","","","","","","","","","","","","","","","","","","","","","","","",""
"","consolidated-trial-data","consolidated-trial-data","251","598703","0.0-78.0","null","consolidated-trial-data","null","","","","","","","","","","","","","","","1","5","20","300","254","46","left","85.25","true","2810.899999976158","3","yes","left","left","85.25","true","true","1000.8000000715256","","","","","","",""
"","fixation","html-keyboard-response","252","600092","0.0-79.0-0.0","null","fixation","null","","-1","-1","","","","","","","","","","","","","","","","","","","","","","","","","","","","","","","","","","","",""
"","numerosity","html-keyboard-response","253","600595","0.0-79.0-1.0","null","[Dot display: left=255, right=300, diff=45]","null","","-1","-1","255","300","45","","","","","","","","","","","","","","","","","","","","","","","","","","","","","","","","",""
"","confidence_first","html-keyboard-response","254","602659","0.0-79.0-2.0","2062.899999976158","Confidence judgement (first response)","","","-1","-1","","","","right","69.5","50","69.5","true","45","","","","","","","","","","","","","","","","","","","","","","","","","","",""
"","forced_advice_display","html-button-response","255","603548","0.0-79.0-4.0-0.0","888","forcedAdvice","0","","-1","-1","","","","","","","","","","","","","","","","","","","","","","","","","","","","","","","","","","","",""
"","show_advice","html-keyboard-response","256","604349","0.0-79.0-4.0-1.0","null","[advice: right]","null","","-1","-1","","","","","","","","","","","right","","","","","","","","","","","","","","","","","","","","","","","","",""
"","confidence_second","html-keyboard-response","257","607006","0.0-79.0-6.0","2651.600000023842","Confidence judgment (second response)","","","-1","-1","","","","right","80.5","50","80.5","true","45","","","","","","","","","","","","","","","","","","","","","","","","","","",""
"","consolidated-trial-data","consolidated-trial-data","258","607008","0.0-80.0","null","consolidated-trial-data","null","","","","","","","","","","","","","","","1","6","21","255","300","45","right","69.5","true","2062.899999976158","2","yes","right","right","80.5","true","true","2651.600000023842","","","","","","",""
"","fixation","html-keyboard-response","259","608254","0.0-81.0-0.0","null","fixation","null","","-1","-1","","","","","","","","","","","","","","","","","","","","","","","","","","","","","","","","","","","",""
"","numerosity","html-keyboard-response","260","608757","0.0-81.0-1.0","null","[Dot display: left=300, right=255, diff=45]","null","","-1","-1","300","255","45","","","","","","","","","","","","","","","","","","","","","","","","","","","","","","","","",""
"","confidence_first","html-keyboard-response","261","611579","0.0-81.0-2.0","2821","Confidence judgement (first response)","","","-1","-1","","","","left","57.25","57.25","50","true","44","","","","","","","","","","","","","","","","","","","","","","","","","","",""
"","forced_advice_display","html-button-response","262","613493","0.0-81.0-4.0-0.0","1913","forcedAdvice","0","","-1","-1","","","","","","","","","","","","","","","","","","","","","","","","","","","","","","","","","","","",""
"","show_advice","html-keyboard-response","263","614295","0.0-81.0-4.0-1.0","null","[advice: left]","null","","-1","-1","","","","","","","","","","","left","","","","","","","","","","","","","","","","","","","","","","","","",""
"","confidence_second","html-keyboard-response","264","615438","0.0-81.0-6.0","1142.7999999523163","Confidence judgment (second response)","","","-1","-1","","","","left","57.25","57.25","50","true","44","","","","","","","","","","","","","","","","","","","","","","","","","","",""
"","consolidated-trial-data","consolidated-trial-data","265","615439","0.0-82.0","null","consolidated-trial-data","null","","","","","","","","","","","","","","","1","7","22","300","255","45","left","57.25","true","2821","2","yes","left","left","57.25","true","true","1142.7999999523163","","","","","","",""
"","fixation","html-keyboard-response","266","616910","0.0-83.0-0.0","null","fixation","null","","-1","-1","","","","","","","","","","","","","","","","","","","","","","","","","","","","","","","","","","","",""
"","numerosity","html-keyboard-response","267","617414","0.0-83.0-1.0","null","[Dot display: left=256, right=300, diff=44]","null","","-1","-1","256","300","44","","","","","","","","","","","","","","","","","","","","","","","","","","","","","","","","",""
"","confidence_first","html-keyboard-response","268","620468","0.0-83.0-2.0","3053.7999999523163","Confidence judgement (first response)","","","-1","-1","","","","right","65.5","50","65.5","true","44","","","","","","","","","","","","","","","","","","","","","","","","","","",""
"","no_advice_display","html-button-response","269","621509","0.0-83.0-5.0-0.0","1040","noAdvice","0","","-1","-1","","","","","","","","","","","","","","","","","","","","","","","","","","","","","","","","","","","",""
"","blank_screen","html-keyboard-response","270","622310","0.0-83.0-5.0-1.0","null","blank","null","","-1","-1","","","","","","","","","","","","","","","","","","","","","","","","","","","","","","","","","","","",""
"","confidence_second","html-keyboard-response","271","623232","0.0-83.0-6.0","921.5","Confidence judgment (second response)","","","-1","-1","","","","right","65.5","50","65.5","true","44","","","","","","","","","","","","","","","","","","","","","","","","","","",""
"","consolidated-trial-data","consolidated-trial-data","272","623233","0.0-84.0","null","consolidated-trial-data","null","","","","","","","","","","","","","","","1","8","23","256","300","44","right","65.5","true","3053.7999999523163","3","yes","left","right","65.5","false","true","921.5","","","","","","",""
"","fixation","html-keyboard-response","273","624696","0.0-85.0-0.0","null","fixation","null","","-1","-1","","","","","","","","","","","","","","","","","","","","","","","","","","","","","","","","","","","",""
"","numerosity","html-keyboard-response","274","625198","0.0-85.0-1.0","null","[Dot display: left=300, right=256, diff=44]","null","","-1","-1","300","256","44","","","","","","","","","","","","","","","","","","","","","","","","","","","","","","","","",""
"","confidence_first","html-keyboard-response","275","629563","0.0-85.0-2.0","4363.899999976158","Confidence judgement (first response)","","","-1","-1","","","","left","59","59","50","true","44","","","","","","","","","","","","","","","","","","","","","","","","","","",""
"","advice_choice","html-button-response","276","631143","0.0-85.0-3.0-0.0","1579","[advice choice Y,N]","0","","-1","-1","","","","","","","","","","","","","","","","","","","","","","","","","","","","","","","","","","","",""
"","show_advice","html-keyboard-response","277","631945","0.0-85.0-3.0-1.0-0.0","null","[advice: left]","null","","-1","-1","","","","","","","","","","","left","","","","","","","","","","","","","","","","","","","","","","","","",""
"","confidence_second","html-keyboard-response","278","633011","0.0-85.0-6.0","1064.7999999523163","Confidence judgment (second response)","","","-1","-1","","","","left","59","59","50","true","44","","","","","","","","","","","","","","","","","","","","","","","","","","",""
"","consolidated-trial-data","consolidated-trial-data","279","633011","0.0-86.0","null","consolidated-trial-data","null","","","","","","","","","","","","","","","1","9","24","300","256","44","left","59","true","4363.899999976158","1","yes","left","left","59","true","true","1064.7999999523163","","","","","","",""
"","fixation","html-keyboard-response","280","634285","0.0-87.0-0.0","null","fixation","null","","-1","-1","","","","","","","","","","","","","","","","","","","","","","","","","","","","","","","","","","","",""
"","numerosity","html-keyboard-response","281","634788","0.0-87.0-1.0","null","[Dot display: left=256, right=300, diff=44]","null","","-1","-1","256","300","44","","","","","","","","","","","","","","","","","","","","","","","","","","","","","","","","",""
"","confidence_first","html-keyboard-response","282","637005","0.0-87.0-2.0","2216.3000000715256","Confidence judgement (first response)","","","-1","-1","","","","right","77.5","50","77.5","true","43","","","","","","","","","","","","","","","","","","","","","","","","","","",""
"","no_advice_display","html-button-response","283","638426","0.0-87.0-5.0-0.0","1421","noAdvice","0","","-1","-1","","","","","","","","","","","","","","","","","","","","","","","","","","","","","","","","","","","",""
"","blank_screen","html-keyboard-response","284","639228","0.0-87.0-5.0-1.0","null","blank","null","","-1","-1","","","","","","","","","","","","","","","","","","","","","","","","","","","","","","","","","","","",""
"","confidence_second","html-keyboard-response","285","641017","0.0-87.0-6.0","1787.7000000476837","Confidence judgment (second response)","","","-1","-1","","","","right","77.5","50","77.5","true","43","","","","","","","","","","","","","","","","","","","","","","","","","","",""
"","consolidated-trial-data","consolidated-trial-data","286","641017","0.0-88.0","null","consolidated-trial-data","null","","","","","","","","","","","","","","","1","10","25","256","300","44","right","77.5","true","2216.3000000715256","3","yes","left","right","77.5","false","true","1787.7000000476837","","","","","","",""
"","fixation","html-keyboard-response","287","642219","0.0-89.0-0.0","null","fixation","null","","-1","-1","","","","","","","","","","","","","","","","","","","","","","","","","","","","","","","","","","","",""
"","numerosity","html-keyboard-response","288","642722","0.0-89.0-1.0","null","[Dot display: left=257, right=300, diff=43]","null","","-1","-1","257","300","43","","","","","","","","","","","","","","","","","","","","","","","","","","","","","","","","",""
"","confidence_first","html-keyboard-response","289","645433","0.0-89.0-2.0","2709.7000000476837","Confidence judgement (first response)","","","-1","-1","","","","right","59.25","50","59.25","true","43","","","","","","","","","","","","","","","","","","","","","","","","","","",""
"","no_advice_display","html-button-response","290","646560","0.0-89.0-5.0-0.0","1127","noAdvice","0","","-1","-1","","","","","","","","","","","","","","","","","","","","","","","","","","","","","","","","","","","",""
"","blank_screen","html-keyboard-response","291","647362","0.0-89.0-5.0-1.0","null","blank","null","","-1","-1","","","","","","","","","","","","","","","","","","","","","","","","","","","","","","","","","","","",""
"","confidence_second","html-keyboard-response","292","648569","0.0-89.0-6.0","1206.3999999761581","Confidence judgment (second response)","","","-1","-1","","","","right","59.25","50","59.25","true","43","","","","","","","","","","","","","","","","","","","","","","","","","","",""
"","consolidated-trial-data","consolidated-trial-data","293","648570","0.0-90.0","null","consolidated-trial-data","null","","","","","","","","","","","","","","","1","11","26","257","300","43","right","59.25","true","2709.7000000476837","3","yes","left","right","59.25","false","true","1206.3999999761581","","","","","","",""
"","fixation","html-keyboard-response","294","649943","0.0-91.0-0.0","null","fixation","null","","-1","-1","","","","","","","","","","","","","","","","","","","","","","","","","","","","","","","","","","","",""
"","numerosity","html-keyboard-response","295","650447","0.0-91.0-1.0","null","[Dot display: left=300, right=257, diff=43]","null","","-1","-1","300","257","43","","","","","","","","","","","","","","","","","","","","","","","","","","","","","","","","",""
"","confidence_first","html-keyboard-response","296","652739","0.0-91.0-2.0","2291.2000000476837","Confidence judgement (first response)","","","-1","-1","","","","left","64","64","50","true","43","","","","","","","","","","","","","","","","","","","","","","","","","","",""
"","forced_advice_display","html-button-response","297","654281","0.0-91.0-4.0-0.0","1541","forcedAdvice","0","","-1","-1","","","","","","","","","","","","","","","","","","","","","","","","","","","","","","","","","","","",""
"","show_advice","html-keyboard-response","298","655082","0.0-91.0-4.0-1.0","null","[advice: left]","null","","-1","-1","","","","","","","","","","","left","","","","","","","","","","","","","","","","","","","","","","","","",""
"","confidence_second","html-keyboard-response","299","657378","0.0-91.0-6.0","2295.100000023842","Confidence judgment (second response)","","","-1","-1","","","","left","81.25","81.25","50","true","43","","","","","","","","","","","","","","","","","","","","","","","","","","",""
"","consolidated-trial-data","consolidated-trial-data","300","657378","0.0-92.0","null","consolidated-trial-data","null","","","","","","","","","","","","","","","1","12","27","300","257","43","left","64","true","2291.2000000476837","2","yes","left","left","81.25","true","true","2295.100000023842","","","","","","",""
"","fixation","html-keyboard-response","301","658618","0.0-93.0-0.0","null","fixation","null","","-1","-1","","","","","","","","","","","","","","","","","","","","","","","","","","","","","","","","","","","",""
"","numerosity","html-keyboard-response","302","659121","0.0-93.0-1.0","null","[Dot display: left=257, right=300, diff=43]","null","","-1","-1","257","300","43","","","","","","","","","","","","","","","","","","","","","","","","","","","","","","","","",""
"","confidence_first","html-keyboard-response","303","661462","0.0-93.0-2.0","2340.600000023842","Confidence judgement (first response)","","","-1","-1","","","","right","56","50","56","true","42","","","","","","","","","","","","","","","","","","","","","","","","","","",""
"","advice_choice","html-button-response","304","662494","0.0-93.0-3.0-0.0","1031","[advice choice Y,N]","0","","-1","-1","","","","","","","","","","","","","","","","","","","","","","","","","","","","","","","","","","","",""
"","show_advice","html-keyboard-response","305","663295","0.0-93.0-3.0-1.0-0.0","null","[advice: left]","null","","-1","-1","","","","","","","","","","","left","","","","","","","","","","","","","","","","","","","","","","","","",""
"","confidence_second","html-keyboard-response","306","664186","0.0-93.0-6.0","891.3000000715256","Confidence judgment (second response)","","","-1","-1","","","","right","56","50","56","true","42","","","","","","","","","","","","","","","","","","","","","","","","","","",""
"","consolidated-trial-data","consolidated-trial-data","307","664187","0.0-94.0","null","consolidated-trial-data","null","","","","","","","","","","","","","","","1","13","28","257","300","43","right","56","true","2340.600000023842","1","yes","left","right","56","false","true","891.3000000715256","","","","","","",""
"","fixation","html-keyboard-response","308","665536","0.0-95.0-0.0","null","fixation","null","","-1","-1","","","","","","","","","","","","","","","","","","","","","","","","","","","","","","","","","","","",""
"","numerosity","html-keyboard-response","309","666040","0.0-95.0-1.0","null","[Dot display: left=258, right=300, diff=42]","null","","-1","-1","258","300","42","","","","","","","","","","","","","","","","","","","","","","","","","","","","","","","","",""
"","confidence_first","html-keyboard-response","310","668170","0.0-95.0-2.0","2128.6999999284744","Confidence judgement (first response)","","","-1","-1","","","","right","64","50","64","true","42","","","","","","","","","","","","","","","","","","","","","","","","","","",""
"","forced_advice_display","html-button-response","311","670373","0.0-95.0-4.0-0.0","2202","forcedAdvice","0","","-1","-1","","","","","","","","","","","","","","","","","","","","","","","","","","","","","","","","","","","",""
"","show_advice","html-keyboard-response","312","671175","0.0-95.0-4.0-1.0","null","[advice: right]","null","","-1","-1","","","","","","","","","","","right","","","","","","","","","","","","","","","","","","","","","","","","",""
"","confidence_second","html-keyboard-response","313","674471","0.0-95.0-6.0","3295.7999999523163","Confidence judgment (second response)","","","-1","-1","","","","right","71.25","50","71.25","true","42","","","","","","","","","","","","","","","","","","","","","","","","","","",""
"","consolidated-trial-data","consolidated-trial-data","314","674472","0.0-96.0","null","consolidated-trial-data","null","","","","","","","","","","","","","","","1","14","29","258","300","42","right","64","true","2128.6999999284744","2","yes","right","right","71.25","true","true","3295.7999999523163","","","","","","",""
"","block_message","html-button-response","315","808935","0.0-97.0","134462","block message","0","","","","","","","","","","","","","3","","","","","","","","","","","","","","","","","","","","","","","","","",""
"","fixation","html-keyboard-response","316","810262","0.0-98.0-0.0","null","fixation","null","","-1","-1","","","","","","","","","","","","","","","","","","","","","","","","","","","","","","","","","","","",""
"","numerosity","html-keyboard-response","317","810764","0.0-98.0-1.0","null","[Dot display: left=300, right=258, diff=42]","null","","-1","-1","300","258","42","","","","","","","","","","","","","","","","","","","","","","","","","","","","","","","","",""
"","confidence_first","html-keyboard-response","318","812810","0.0-98.0-2.0","2044.6000000238419","Confidence judgement (first response)","","","-1","-1","","","","left","56.5","56.5","50","true","42","","","","","","","","","","","","","","","","","","","","","","","","","","",""
"","advice_choice","html-button-response","319","814556","0.0-98.0-3.0-0.0","1746","[advice choice Y,N]","1","","-1","-1","","","","","","","","","","","","","","","","","","","","","","","","","","","","","","","","","","","",""
"","blank_screen","html-keyboard-response","320","815358","0.0-98.0-3.0-2.0-0.0","null","blank","null","","-1","-1","","","","","","","","","","","","","","","","","","","","","","","","","","","","","","","","","","","",""
"","confidence_second","html-keyboard-response","321","816534","0.0-98.0-6.0","1175.7999999523163","Confidence judgment (second response)","","","-1","-1","","","","left","56.5","56.5","50","true","42","","","","","","","","","","","","","","","","","","","","","","","","","","",""
"","consolidated-trial-data","consolidated-trial-data","322","816535","0.0-99.0","null","consolidated-trial-data","null","","","","","","","","","","","","","","","2","0","30","300","258","42","left","56.5","true","2044.6000000238419","1","no","right","left","56.5","false","true","1175.7999999523163","","","","","","",""
"","attncheck","html-button-response","323","820173","0.0-100.0","3637","attncheck","0","","","","","","","","","","","","","","","","","","","","","","","","","","","","","","","","","true","Stop","","","","",""
"","fixation","html-keyboard-response","324","821433","0.0-101.0-0.0","null","fixation","null","","-1","-1","","","","","","","","","","","","","","","","","","","","","","","","","","","","","","","","","","","",""
"","numerosity","html-keyboard-response","325","821936","0.0-101.0-1.0","null","[Dot display: left=258, right=300, diff=42]","null","","-1","-1","258","300","42","","","","","","","","","","","","","","","","","","","","","","","","","","","","","","","","",""
"","confidence_first","html-keyboard-response","326","824955","0.0-101.0-2.0","3018.2999999523163","Confidence judgement (first response)","","","-1","-1","","","","right","55","50","55","true","41","","","","","","","","","","","","","","","","","","","","","","","","","","",""
"","no_advice_display","html-button-response","327","826218","0.0-101.0-5.0-0.0","1263","noAdvice","0","","-1","-1","","","","","","","","","","","","","","","","","","","","","","","","","","","","","","","","","","","",""
"","blank_screen","html-keyboard-response","328","827020","0.0-101.0-5.0-1.0","null","blank","null","","-1","-1","","","","","","","","","","","","","","","","","","","","","","","","","","","","","","","","","","","",""
"","confidence_second","html-keyboard-response","329","827766","0.0-101.0-6.0","744.7999999523163","Confidence judgment (second response)","","","-1","-1","","","","right","55","50","55","true","41","","","","","","","","","","","","","","","","","","","","","","","","","","",""
"","consolidated-trial-data","consolidated-trial-data","330","827766","0.0-102.0","null","consolidated-trial-data","null","","","","","","","","","","","","","","","2","1","31","258","300","42","right","55","true","3018.2999999523163","3","no","right","right","55","true","true","744.7999999523163","","","","","","",""
"","fixation","html-keyboard-response","331","829258","0.0-103.0-0.0","null","fixation","null","","-1","-1","","","","","","","","","","","","","","","","","","","","","","","","","","","","","","","","","","","",""
"","numerosity","html-keyboard-response","332","829761","0.0-103.0-1.0","null","[Dot display: left=259, right=300, diff=41]","null","","-1","-1","259","300","41","","","","","","","","","","","","","","","","","","","","","","","","","","","","","","","","",""
"","confidence_first","html-keyboard-response","333","832127","0.0-103.0-2.0","2364.6999999284744","Confidence judgement (first response)","","","-1","-1","","","","right","55.5","50","55.5","true","41","","","","","","","","","","","","","","","","","","","","","","","","","","",""
"","forced_advice_display","html-button-response","334","834692","0.0-103.0-4.0-0.0","2565","forcedAdvice","0","","-1","-1","","","","","","","","","","","","","","","","","","","","","","","","","","","","","","","","","","","",""
"","show_advice","html-keyboard-response","335","835494","0.0-103.0-4.0-1.0","null","[advice: right]","null","","-1","-1","","","","","","","","","","","right","","","","","","","","","","","","","","","","","","","","","","","","",""
"","confidence_second","html-keyboard-response","336","836423","0.0-103.0-6.0","928.5","Confidence judgment (second response)","","","-1","-1","","","","right","55.5","50","55.5","true","41","","","","","","","","","","","","","","","","","","","","","","","","","","",""
"","consolidated-trial-data","consolidated-trial-data","337","836424","0.0-104.0","null","consolidated-trial-data","null","","","","","","","","","","","","","","","2","2","32","259","300","41","right","55.5","true","2364.6999999284744","2","no","right","right","55.5","true","true","928.5","","","","","","",""
"","fixation","html-keyboard-response","338","837629","0.0-105.0-0.0","null","fixation","null","","-1","-1","","","","","","","","","","","","","","","","","","","","","","","","","","","","","","","","","","","",""
"","numerosity","html-keyboard-response","339","838131","0.0-105.0-1.0","null","[Dot display: left=300, right=259, diff=41]","null","","-1","-1","300","259","41","","","","","","","","","","","","","","","","","","","","","","","","","","","","","","","","",""
"","confidence_first","html-keyboard-response","340","840315","0.0-105.0-2.0","2182.6999999284744","Confidence judgement (first response)","","","-1","-1","","","","left","67.25","67.25","50","true","41","","","","","","","","","","","","","","","","","","","","","","","","","","",""
"","advice_choice","html-button-response","341","841871","0.0-105.0-3.0-0.0","1555","[advice choice Y,N]","0","","-1","-1","","","","","","","","","","","","","","","","","","","","","","","","","","","","","","","","","","","",""
"","show_advice","html-keyboard-response","342","842673","0.0-105.0-3.0-1.0-0.0","null","[advice: left]","null","","-1","-1","","","","","","","","","","","left","","","","","","","","","","","","","","","","","","","","","","","","",""
"","confidence_second","html-keyboard-response","343","843525","0.0-105.0-6.0","851","Confidence judgment (second response)","","","-1","-1","","","","left","67.25","67.25","50","true","41","","","","","","","","","","","","","","","","","","","","","","","","","","",""
"","consolidated-trial-data","consolidated-trial-data","344","843526","0.0-106.0","null","consolidated-trial-data","null","","","","","","","","","","","","","","","2","3","33","300","259","41","left","67.25","true","2182.6999999284744","1","yes","left","left","67.25","true","true","851","","","","","","",""
"","fixation","html-keyboard-response","345","844975","0.0-107.0-0.0","null","fixation","null","","-1","-1","","","","","","","","","","","","","","","","","","","","","","","","","","","","","","","","","","","",""
"","numerosity","html-keyboard-response","346","845478","0.0-107.0-1.0","null","[Dot display: left=300, right=259, diff=41]","null","","-1","-1","300","259","41","","","","","","","","","","","","","","","","","","","","","","","","","","","","","","","","",""
"","confidence_first","html-keyboard-response","347","847415","0.0-107.0-2.0","1935.6000000238419","Confidence judgement (first response)","","","-1","-1","","","","left","83.25","83.25","50","true","41","","","","","","","","","","","","","","","","","","","","","","","","","","",""
"","advice_choice","html-button-response","348","848710","0.0-107.0-3.0-0.0","1294","[advice choice Y,N]","0","","-1","-1","","","","","","","","","","","","","","","","","","","","","","","","","","","","","","","","","","","",""
"","show_advice","html-keyboard-response","349","849511","0.0-107.0-3.0-1.0-0.0","null","[advice: left]","null","","-1","-1","","","","","","","","","","","left","","","","","","","","","","","","","","","","","","","","","","","","",""
"","confidence_second","html-keyboard-response","350","850179","0.0-107.0-6.0","667.3999999761581","Confidence judgment (second response)","","","-1","-1","","","","left","83.25","83.25","50","true","41","","","","","","","","","","","","","","","","","","","","","","","","","","",""
"","consolidated-trial-data","consolidated-trial-data","351","850180","0.0-108.0","null","consolidated-trial-data","null","","","","","","","","","","","","","","","2","4","34","300","259","41","left","83.25","true","1935.6000000238419","1","yes","left","left","83.25","true","true","667.3999999761581","","","","","","",""
"","fixation","html-keyboard-response","352","851472","0.0-109.0-0.0","null","fixation","null","","-1","-1","","","","","","","","","","","","","","","","","","","","","","","","","","","","","","","","","","","",""
"","numerosity","html-keyboard-response","353","851979","0.0-109.0-1.0","null","[Dot display: left=259, right=300, diff=41]","null","","-1","-1","259","300","41","","","","","","","","","","","","","","","","","","","","","","","","","","","","","","","","",""
"","confidence_first","html-keyboard-response","354","854419","0.0-109.0-2.0","2438.5999999046326","Confidence judgement (first response)","","","-1","-1","","","","right","73.5","50","73.5","true","40","","","","","","","","","","","","","","","","","","","","","","","","","","",""
"","no_advice_display","html-button-response","355","855921","0.0-109.0-5.0-0.0","1501","noAdvice","0","","-1","-1","","","","","","","","","","","","","","","","","","","","","","","","","","","","","","","","","","","",""
"","blank_screen","html-keyboard-response","356","856722","0.0-109.0-5.0-1.0","null","blank","null","","-1","-1","","","","","","","","","","","","","","","","","","","","","","","","","","","","","","","","","","","",""
"","confidence_second","html-keyboard-response","357","858081","0.0-109.0-6.0","1357.7999999523163","Confidence judgment (second response)","","","-1","-1","","","","right","73.5","50","73.5","true","40","","","","","","","","","","","","","","","","","","","","","","","","","","",""
"","consolidated-trial-data","consolidated-trial-data","358","858081","0.0-110.0","null","consolidated-trial-data","null","","","","","","","","","","","","","","","2","5","35","259","300","41","right","73.5","true","2438.5999999046326","3","yes","left","right","73.5","false","true","1357.7999999523163","","","","","","",""
"","fixation","html-keyboard-response","359","859533","0.0-111.0-0.0","null","fixation","null","","-1","-1","","","","","","","","","","","","","","","","","","","","","","","","","","","","","","","","","","","",""
"","numerosity","html-keyboard-response","360","860037","0.0-111.0-1.0","null","[Dot display: left=260, right=300, diff=40]","null","","-1","-1","260","300","40","","","","","","","","","","","","","","","","","","","","","","","","","","","","","","","","",""
"","confidence_first","html-keyboard-response","361","863458","0.0-111.0-2.0","3420.399999976158","Confidence judgement (first response)","","","-1","-1","","","","left","75.5","75.5","50","false","41","","","","","","","","","","","","","","","","","","","","","","","","","","",""
"","forced_advice_display","html-button-response","362","865204","0.0-111.0-4.0-0.0","1746","forcedAdvice","0","","-1","-1","","","","","","","","","","","","","","","","","","","","","","","","","","","","","","","","","","","",""
"","show_advice","html-keyboard-response","363","866006","0.0-111.0-4.0-1.0","null","[advice: right]","null","","-1","-1","","","","","","","","","","","right","","","","","","","","","","","","","","","","","","","","","","","","",""
"","confidence_second","html-keyboard-response","364","867587","0.0-111.0-6.0","1580.7000000476837","Confidence judgment (second response)","","","-1","-1","","","","left","75.5","75.5","50","false","41","","","","","","","","","","","","","","","","","","","","","","","","","","",""
"","consolidated-trial-data","consolidated-trial-data","365","867588","0.0-112.0","null","consolidated-trial-data","null","","","","","","","","","","","","","","","2","6","36","260","300","40","left","75.5","false","3420.399999976158","2","yes","right","left","75.5","true","false","1580.7000000476837","","","","","","",""
"","fixation","html-keyboard-response","366","868837","0.0-113.0-0.0","null","fixation","null","","-1","-1","","","","","","","","","","","","","","","","","","","","","","","","","","","","","","","","","","","",""
"","numerosity","html-keyboard-response","367","869339","0.0-113.0-1.0","null","[Dot display: left=259, right=300, diff=41]","null","","-1","-1","259","300","41","","","","","","","","","","","","","","","","","","","","","","","","","","","","","","","","",""
"","confidence_first","html-keyboard-response","368","871463","0.0-113.0-2.0","2122.7999999523163","Confidence judgement (first response)","","","-1","-1","","","","left","75.75","75.75","50","false","42","","","","","","","","","","","","","","","","","","","","","","","","","","",""
"","forced_advice_display","html-button-response","369","873416","0.0-113.0-4.0-0.0","1952","forcedAdvice","0","","-1","-1","","","","","","","","","","","","","","","","","","","","","","","","","","","","","","","","","","","",""
"","show_advice","html-keyboard-response","370","874218","0.0-113.0-4.0-1.0","null","[advice: left]","null","","-1","-1","","","","","","","","","","","left","","","","","","","","","","","","","","","","","","","","","","","","",""
"","confidence_second","html-keyboard-response","371","876720","0.0-113.0-6.0","2501.5999999046326","Confidence judgment (second response)","","","-1","-1","","","","left","87","87","50","false","42","","","","","","","","","","","","","","","","","","","","","","","","","","",""
"","consolidated-trial-data","consolidated-trial-data","372","876721","0.0-114.0","null","consolidated-trial-data","null","","","","","","","","","","","","","","","2","7","37","259","300","41","left","75.75","false","2122.7999999523163","2","yes","left","left","87","false","false","2501.5999999046326","","","","","","",""
"","fixation","html-keyboard-response","373","878116","0.0-115.0-0.0","null","fixation","null","","-1","-1","","","","","","","","","","","","","","","","","","","","","","","","","","","","","","","","","","","",""
"","numerosity","html-keyboard-response","374","878619","0.0-115.0-1.0","null","[Dot display: left=258, right=300, diff=42]","null","","-1","-1","258","300","42","","","","","","","","","","","","","","","","","","","","","","","","","","","","","","","","",""
"","confidence_first","html-keyboard-response","375","881105","0.0-115.0-2.0","2484.5","Confidence judgement (first response)","","","-1","-1","","","","left","76","76","50","false","43","","","","","","","","","","","","","","","","","","","","","","","","","","",""
"","no_advice_display","html-button-response","376","882772","0.0-115.0-5.0-0.0","1667","noAdvice","0","","-1","-1","","","","","","","","","","","","","","","","","","","","","","","","","","","","","","","","","","","",""
"","blank_screen","html-keyboard-response","377","883574","0.0-115.0-5.0-1.0","null","blank","null","","-1","-1","","","","","","","","","","","","","","","","","","","","","","","","","","","","","","","","","","","",""
"","confidence_second","html-keyboard-response","378","884988","0.0-115.0-6.0","1413.9000000953674","Confidence judgment (second response)","","","-1","-1","","","","left","76","76","50","false","43","","","","","","","","","","","","","","","","","","","","","","","","","","",""
"","consolidated-trial-data","consolidated-trial-data","379","884989","0.0-116.0","null","consolidated-trial-data","null","","","","","","","","","","","","","","","2","8","38","258","300","42","left","76","false","2484.5","3","yes","left","left","76","false","false","1413.9000000953674","","","","","","",""
"","fixation","html-keyboard-response","380","886417","0.0-117.0-0.0","null","fixation","null","","-1","-1","","","","","","","","","","","","","","","","","","","","","","","","","","","","","","","","","","","",""
"","numerosity","html-keyboard-response","381","886920","0.0-117.0-1.0","null","[Dot display: left=300, right=257, diff=43]","null","","-1","-1","300","257","43","","","","","","","","","","","","","","","","","","","","","","","","","","","","","","","","",""
"","confidence_first","html-keyboard-response","382","891150","0.0-117.0-2.0","4228.800000071526","Confidence judgement (first response)","","","-1","-1","","","","left","77","77","50","true","43","","","","","","","","","","","","","","","","","","","","","","","","","","",""
"","advice_choice","html-button-response","383","893858","0.0-117.0-3.0-0.0","2708","[advice choice Y,N]","0","","-1","-1","","","","","","","","","","","","","","","","","","","","","","","","","","","","","","","","","","","",""
"","show_advice","html-keyboard-response","384","894660","0.0-117.0-3.0-1.0-0.0","null","[advice: left]","null","","-1","-1","","","","","","","","","","","left","","","","","","","","","","","","","","","","","","","","","","","","",""
"","confidence_second","html-keyboard-response","385","895899","0.0-117.0-6.0","1238.2000000476837","Confidence judgment (second response)","","","-1","-1","","","","left","77","77","50","true","43","","","","","","","","","","","","","","","","","","","","","","","","","","",""
