"success","task","trial_type","trial_index","time_elapsed","internal_node_id","rt","stimulus","response","pixels_per_unit","itrial","iblock","leftDots","rightDots","difference","selected_side","confidence_value","left_confidence","right_confidence","correct","threshold","block_num","advice_direction","block","trial","trialid","dotsLeft","dotsRight","dotsDiff","selectedSide_first","confidence_first","correct_1","rt_1","adviceCond","adviceChoice","adviceDir","selectedSide_second","confidence_second","adviceCorrect","correct_2","rt_2","attention_check_correct","target_button","top_prompt","bottom_prompt","top_response","bottom_response","question_order"
"true","fullscreen_enter","fullscreen","0","6358","0.0-0.0","","","","","","","","","","","","","","","","","","","","","","","","","","","","","","","","","","","","","","","","","",""
"","welcome","html-button-response","1","17400","0.0-1.0","11038","welcome_msg","0","","","","","","","","","","","","","","","","","","","","","","","","","","","","","","","","","","","","","","",""
"","PISdoc","html-button-response","2","289564","0.0-2.0","272156","PISdoc","0","","","","","","","","","","","","","","","","","","","","","","","","","","","","","","","","","","","","","","",""
"","demographics","survey-html-form","3","296167","0.0-3.0","6600","","{""age"":""42"",""gender"":""female"",""id"":""6685""}","","","","","","","","","","","","","","","","","","","","","","","","","","","","","","","","","","","","","","",""
"","dass10","survey-likert","4","455723","0.0-4.0","159552","","{""felt_panic"":1,""no_initiative"":2,""felt_blue"":0,""was_intolerant"":0,""nothing_forward"":0,""felt_scared"":0,""over_react"":0,""felt_worry"":1,""no_relax"":2,""no_positive"":0,""felt_annoyed"":0,""EOL_thoughts"":0}","","","","","","","","","","","","","","","","","","","","","","","","","","","","","","","","","","","","","","",""
"","pracInstructions","html-button-response","5","478933","0.0-5.0-0.0","23206","pracInstruc","0","","","","","","","","","","","","","","","","","","","","","","","","","","","","","","","","","","","","","","",""
"","pracInstructions","html-button-response","6","498108","0.0-5.0-0.1","19173","pracInstruc","0","","","","","","","","","","","","","","","","","","","","","","","","","","","","","","","","","","","","","","",""
"","pracInstructions","html-button-response","7","512045","0.0-5.0-0.2","13935","pracInstruc","0","","","","","","","","","","","","","","","","","","","","","","","","","","","","","","","","","","","","","","",""
"","pracInstructions","html-button-response","8","515938","0.0-5.0-0.3","3892","pracInstruc","0","","","","","","","","","","","","","","","","","","","","","","","","","","","","","","","","","","","","","","",""
"","pracInstructions","html-button-response","9","523264","0.0-5.0-0.4","7324","pracInstruc","0","","","","","","","","","","","","","","","","","","","","","","","","","","","","","","","","","","","","","","",""
"","pracInstructions","html-button-response","10","527325","0.0-5.0-0.5","4059","pracInstruc","0","","","","","","","","","","","","","","","","","","","","","","","","","","","","","","","","","","","","","","",""
"","pracInstructions","html-button-response","11","533747","0.0-5.0-0.6","6421","pracInstruc","0","","","","","","","","","","","","","","","","","","","","","","","","","","","","","","","","","","","","","","",""
"","","html-button-response","12","547452","0.0-6.0","13703","<div style= ""font-size: 24px; color: white"">
                        
                            <p>First, Please hold a credit card up to your screen.</p>
                            <p>Adjust this box until it matches the size of the credit card.</p>
                            <div id=""calibration-box"" style=""
                                width: 506px;
                                height: 319px;
                                border: 2px solid white;
                                background-color: rgba(255,255,255,0.2);
                                margin: 20px auto;
                                resize: both;
                                overflow: hidden;
                            ""></div>
                        </div>
                    ","0","151","","","","","","","","","","","","","","","","","","","","","","","","","","","","","","","","","","","","","",""
"","fixation","html-keyboard-response","13","548753","0.0-7.0-0.0","null","fixation","null","","-1","-1","","","","","","","","","","","","","","","","","","","","","","","","","","","","","","","","","","","",""
"","numerosity","html-keyboard-response","14","549263","0.0-7.0-1.0","null","[Dot display: left=250, right=300, diff=50]","null","","-1","-1","250","300","50","","","","","","","","","","","","","","","","","","","","","","","","","","","","","","","","",""
"","confidence_first","html-keyboard-response","15","556410","0.0-7.0-2.0","7142.100000023842","Confidence judgement (first response)","","","-1","-1","","","","left","53","53","50","false","39","","","","","","","","","","","","","","","","","","","","","","","","","","",""
"","fixation","html-keyboard-response","16","557862","0.0-8.0-0.0","null","fixation","null","","-1","-1","","","","","","","","","","","","","","","","","","","","","","","","","","","","","","","","","","","",""
"","numerosity","html-keyboard-response","17","558377","0.0-8.0-1.0","null","[Dot display: left=300, right=250, diff=50]","null","","-1","-1","300","250","50","","","","","","","","","","","","","","","","","","","","","","","","","","","","","","","","",""
"","confidence_first","html-keyboard-response","18","570976","0.0-8.0-2.0","12597.600000023842","Confidence judgement (first response)","","","-1","-1","","","","left","55","55","50","true","37","","","","","","","","","","","","","","","","","","","","","","","","","","",""
"","fixation","html-keyboard-response","19","572471","0.0-9.0-0.0","null","fixation","null","","-1","-1","","","","","","","","","","","","","","","","","","","","","","","","","","","","","","","","","","","",""
"","numerosity","html-keyboard-response","20","572981","0.0-9.0-1.0","null","[Dot display: left=250, right=300, diff=50]","null","","-1","-1","250","300","50","","","","","","","","","","","","","","","","","","","","","","","","","","","","","","","","",""
"","confidence_first","html-keyboard-response","21","577925","0.0-9.0-2.0","4941","Confidence judgement (first response)","","","-1","-1","","","","right","94","50","94","true","35","","","","","","","","","","","","","","","","","","","","","","","","","","",""
"","fixation","html-keyboard-response","22","579203","0.0-10.0-0.0","null","fixation","null","","-1","-1","","","","","","","","","","","","","","","","","","","","","","","","","","","","","","","","","","","",""
"","numerosity","html-keyboard-response","23","579713","0.0-10.0-1.0","null","[Dot display: left=300, right=265, diff=35]","null","","-1","-1","300","265","35","","","","","","","","","","","","","","","","","","","","","","","","","","","","","","","","",""
"","confidence_first","html-keyboard-response","24","584579","0.0-10.0-2.0","4862.699999928474","Confidence judgement (first response)","","","-1","-1","","","","left","93.75","93.75","50","true","31","","","","","","","","","","","","","","","","","","","","","","","","","","",""
"","fixation","html-keyboard-response","25","585931","0.0-11.0-0.0","null","fixation","null","","-1","-1","","","","","","","","","","","","","","","","","","","","","","","","","","","","","","","","","","","",""
"","numerosity","html-keyboard-response","26","586442","0.0-11.0-1.0","null","[Dot display: left=269, right=300, diff=31]","null","","-1","-1","269","300","31","","","","","","","","","","","","","","","","","","","","","","","","","","","","","","","","",""
"","confidence_first","html-keyboard-response","27","590639","0.0-11.0-2.0","4195.299999952316","Confidence judgement (first response)","","","-1","-1","","","","right","95.25","50","95.25","true","27","","","","","","","","","","","","","","","","","","","","","","","","","","",""
"","fixation","html-keyboard-response","28","592142","0.0-12.0-0.0","null","fixation","null","","-1","-1","","","","","","","","","","","","","","","","","","","","","","","","","","","","","","","","","","","",""
"","numerosity","html-keyboard-response","29","592657","0.0-12.0-1.0","null","[Dot display: left=273, right=300, diff=27]","null","","-1","-1","273","300","27","","","","","","","","","","","","","","","","","","","","","","","","","","","","","","","","",""
"","confidence_first","html-keyboard-response","30","595925","0.0-12.0-2.0","3265.399999976158","Confidence judgement (first response)","","","-1","-1","","","","right","89.5","50","89.5","true","23","","","","","","","","","","","","","","","","","","","","","","","","","","",""
"","fixation","html-keyboard-response","31","597426","0.0-13.0-0.0","null","fixation","null","","-1","-1","","","","","","","","","","","","","","","","","","","","","","","","","","","","","","","","","","","",""
"","numerosity","html-keyboard-response","32","597941","0.0-13.0-1.0","null","[Dot display: left=277, right=300, diff=23]","null","","-1","-1","277","300","23","","","","","","","","","","","","","","","","","","","","","","","","","","","","","","","","",""
"","confidence_first","html-keyboard-response","33","602025","0.0-13.0-2.0","4081.7999999523163","Confidence judgement (first response)","","","-1","-1","","","","left","93.25","93.25","50","false","40","","","","","","","","","","","","","","","","","","","","","","","","","","",""
"","fixation","html-keyboard-response","34","603512","0.0-14.0-0.0","null","fixation","null","","-1","-1","","","","","","","","","","","","","","","","","","","","","","","","","","","","","","","","","","","",""
"","numerosity","html-keyboard-response","35","604024","0.0-14.0-1.0","null","[Dot display: left=260, right=300, diff=40]","null","","-1","-1","260","300","40","","","","","","","","","","","","","","","","","","","","","","","","","","","","","","","","",""
"","confidence_first","html-keyboard-response","36","607456","0.0-14.0-2.0","3429.399999976158","Confidence judgement (first response)","","","-1","-1","","","","left","92.25","92.25","50","false","48","","","","","","","","","","","","","","","","","","","","","","","","","","",""
"","fixation","html-keyboard-response","37","608901","0.0-15.0-0.0","null","fixation","null","","-1","-1","","","","","","","","","","","","","","","","","","","","","","","","","","","","","","","","","","","",""
"","numerosity","html-keyboard-response","38","609411","0.0-15.0-1.0","null","[Dot display: left=252, right=300, diff=48]","null","","-1","-1","252","300","48","","","","","","","","","","","","","","","","","","","","","","","","","","","","","","","","",""
"","confidence_first","html-keyboard-response","39","613565","0.0-15.0-2.0","4150.899999976158","Confidence judgement (first response)","","","-1","-1","","","","right","95.25","50","95.25","true","47","","","","","","","","","","","","","","","","","","","","","","","","","","",""
"","fixation","html-keyboard-response","40","614895","0.0-16.0-0.0","null","fixation","null","","-1","-1","","","","","","","","","","","","","","","","","","","","","","","","","","","","","","","","","","","",""
"","numerosity","html-keyboard-response","41","615410","0.0-16.0-1.0","null","[Dot display: left=253, right=300, diff=47]","null","","-1","-1","253","300","47","","","","","","","","","","","","","","","","","","","","","","","","","","","","","","","","",""
"","confidence_first","html-keyboard-response","42","631939","0.0-16.0-2.0","16527.100000023842","Confidence judgement (first response)","","","-1","-1","","","","left","91","91","50","false","52","","","","","","","","","","","","","","","","","","","","","","","","","","",""
"","fixation","html-keyboard-response","43","633295","0.0-17.0-0.0","null","fixation","null","","-1","-1","","","","","","","","","","","","","","","","","","","","","","","","","","","","","","","","","","","",""
"","numerosity","html-keyboard-response","44","633811","0.0-17.0-1.0","null","[Dot display: left=300, right=248, diff=52]","null","","-1","-1","300","248","52","","","","","","","","","","","","","","","","","","","","","","","","","","","","","","","","",""
"","confidence_first","html-keyboard-response","45","639552","0.0-17.0-2.0","5738.5","Confidence judgement (first response)","","","-1","-1","","","","left","94.75","94.75","50","true","51","","","","","","","","","","","","","","","","","","","","","","","","","","",""
"","fixation","html-keyboard-response","46","640929","0.0-18.0-0.0","null","fixation","null","","-1","-1","","","","","","","","","","","","","","","","","","","","","","","","","","","","","","","","","","","",""
"","numerosity","html-keyboard-response","47","641444","0.0-18.0-1.0","null","[Dot display: left=300, right=249, diff=51]","null","","-1","-1","300","249","51","","","","","","","","","","","","","","","","","","","","","","","","","","","","","","","","",""
"","confidence_first","html-keyboard-response","48","645387","0.0-18.0-2.0","3941","Confidence judgement (first response)","","","-1","-1","","","","left","99.25","99.25","50","true","50","","","","","","","","","","","","","","","","","","","","","","","","","","",""
"","fixation","html-keyboard-response","49","646658","0.0-19.0-0.0","null","fixation","null","","-1","-1","","","","","","","","","","","","","","","","","","","","","","","","","","","","","","","","","","","",""
"","numerosity","html-keyboard-response","50","647173","0.0-19.0-1.0","null","[Dot display: left=250, right=300, diff=50]","null","","-1","-1","250","300","50","","","","","","","","","","","","","","","","","","","","","","","","","","","","","","","","",""
"","confidence_first","html-keyboard-response","51","654023","0.0-19.0-2.0","6848.199999928474","Confidence judgement (first response)","","","-1","-1","","","","right","99.25","50","99.25","true","49","","","","","","","","","","","","","","","","","","","","","","","","","","",""
"","fixation","html-keyboard-response","52","655440","0.0-20.0-0.0","null","fixation","null","","-1","-1","","","","","","","","","","","","","","","","","","","","","","","","","","","","","","","","","","","",""
"","numerosity","html-keyboard-response","53","655948","0.0-20.0-1.0","null","[Dot display: left=300, right=251, diff=49]","null","","-1","-1","300","251","49","","","","","","","","","","","","","","","","","","","","","","","","","","","","","","","","",""
"","confidence_first","html-keyboard-response","54","663339","0.0-20.0-2.0","7389.199999928474","Confidence judgement (first response)","","","-1","-1","","","","left","100","100","50","true","48","","","","","","","","","","","","","","","","","","","","","","","","","","",""
"","fixation","html-keyboard-response","55","664557","0.0-21.0-0.0","null","fixation","null","","-1","-1","","","","","","","","","","","","","","","","","","","","","","","","","","","","","","","","","","","",""
"","numerosity","html-keyboard-response","56","665066","0.0-21.0-1.0","null","[Dot display: left=300, right=252, diff=48]","null","","-1","-1","300","252","48","","","","","","","","","","","","","","","","","","","","","","","","","","","","","","","","",""
"","confidence_first","html-keyboard-response","57","671302","0.0-21.0-2.0","6233.700000047684","Confidence judgement (first response)","","","-1","-1","","","","left","99.75","99.75","50","true","47","","","","","","","","","","","","","","","","","","","","","","","","","","",""
"","fixation","html-keyboard-response","58","672558","0.0-22.0-0.0","null","fixation","null","","-1","-1","","","","","","","","","","","","","","","","","","","","","","","","","","","","","","","","","","","",""
"","numerosity","html-keyboard-response","59","673069","0.0-22.0-1.0","null","[Dot display: left=253, right=300, diff=47]","null","","-1","-1","253","300","47","","","","","","","","","","","","","","","","","","","","","","","","","","","","","","","","",""
"","confidence_first","html-keyboard-response","60","678772","0.0-22.0-2.0","5701.300000071526","Confidence judgement (first response)","","","-1","-1","","","","left","73.25","73.25","50","false","51","","","","","","","","","","","","","","","","","","","","","","","","","","",""
"","fixation","html-keyboard-response","61","679998","0.0-23.0-0.0","null","fixation","null","","-1","-1","","","","","","","","","","","","","","","","","","","","","","","","","","","","","","","","","","","",""
"","numerosity","html-keyboard-response","62","680516","0.0-23.0-1.0","null","[Dot display: left=300, right=249, diff=51]","null","","-1","-1","300","249","51","","","","","","","","","","","","","","","","","","","","","","","","","","","","","","","","",""
"","confidence_first","html-keyboard-response","63","686025","0.0-23.0-2.0","5506.700000047684","Confidence judgement (first response)","","","-1","-1","","","","left","99.75","99.75","50","true","50","","","","","","","","","","","","","","","","","","","","","","","","","","",""
"","fixation","html-keyboard-response","64","687361","0.0-24.0-0.0","null","fixation","null","","-1","-1","","","","","","","","","","","","","","","","","","","","","","","","","","","","","","","","","","","",""
"","numerosity","html-keyboard-response","65","687877","0.0-24.0-1.0","null","[Dot display: left=250, right=300, diff=50]","null","","-1","-1","250","300","50","","","","","","","","","","","","","","","","","","","","","","","","","","","","","","","","",""
"","confidence_first","html-keyboard-response","66","692686","0.0-24.0-2.0","4808","Confidence judgement (first response)","","","-1","-1","","","","right","99.75","50","99.75","true","49","","","","","","","","","","","","","","","","","","","","","","","","","","",""
"","fixation","html-keyboard-response","67","694155","0.0-25.0-0.0","null","fixation","null","","-1","-1","","","","","","","","","","","","","","","","","","","","","","","","","","","","","","","","","","","",""
"","numerosity","html-keyboard-response","68","694668","0.0-25.0-1.0","null","[Dot display: left=300, right=251, diff=49]","null","","-1","-1","300","251","49","","","","","","","","","","","","","","","","","","","","","","","","","","","","","","","","",""
"","confidence_first","html-keyboard-response","69","705257","0.0-25.0-2.0","10587.5","Confidence judgement (first response)","","","-1","-1","","","","left","100","100","50","true","49","","","","","","","","","","","","","","","","","","","","","","","","","","",""
"","fixation","html-keyboard-response","70","706549","0.0-26.0-0.0","null","fixation","null","","-1","-1","","","","","","","","","","","","","","","","","","","","","","","","","","","","","","","","","","","",""
"","numerosity","html-keyboard-response","71","707063","0.0-26.0-1.0","null","[Dot display: left=300, right=251, diff=49]","null","","-1","-1","300","251","49","","","","","","","","","","","","","","","","","","","","","","","","","","","","","","","","",""
"","confidence_first","html-keyboard-response","72","712037","0.0-26.0-2.0","4972","Confidence judgement (first response)","","","-1","-1","","","","left","100","100","50","true","48","","","","","","","","","","","","","","","","","","","","","","","","","","",""
"","fixation","html-keyboard-response","73","713364","0.0-27.0-0.0","null","fixation","null","","-1","-1","","","","","","","","","","","","","","","","","","","","","","","","","","","","","","","","","","","",""
"","numerosity","html-keyboard-response","74","713878","0.0-27.0-1.0","null","[Dot display: left=252, right=300, diff=48]","null","","-1","-1","252","300","48","","","","","","","","","","","","","","","","","","","","","","","","","","","","","","","","",""
"","confidence_first","html-keyboard-response","75","718312","0.0-27.0-2.0","4431.199999928474","Confidence judgement (first response)","","","-1","-1","","","","right","71.5","50","71.5","true","47","","","","","","","","","","","","","","","","","","","","","","","","","","",""
"","fixation","html-keyboard-response","76","719628","0.0-28.0-0.0","null","fixation","null","","-1","-1","","","","","","","","","","","","","","","","","","","","","","","","","","","","","","","","","","","",""
"","numerosity","html-keyboard-response","77","720137","0.0-28.0-1.0","null","[Dot display: left=300, right=253, diff=47]","null","","-1","-1","300","253","47","","","","","","","","","","","","","","","","","","","","","","","","","","","","","","","","",""
"","confidence_first","html-keyboard-response","78","726903","0.0-28.0-2.0","6764","Confidence judgement (first response)","","","-1","-1","","","","left","99.75","99.75","50","true","47","","","","","","","","","","","","","","","","","","","","","","","","","","",""
"","fixation","html-keyboard-response","79","728280","0.0-29.0-0.0","null","fixation","null","","-1","-1","","","","","","","","","","","","","","","","","","","","","","","","","","","","","","","","","","","",""
"","numerosity","html-keyboard-response","80","728792","0.0-29.0-1.0","null","[Dot display: left=253, right=300, diff=47]","null","","-1","-1","253","300","47","","","","","","","","","","","","","","","","","","","","","","","","","","","","","","","","",""
"","confidence_first","html-keyboard-response","81","735527","0.0-29.0-2.0","6733","Confidence judgement (first response)","","","-1","-1","","","","right","75.75","50","75.75","true","46","","","","","","","","","","","","","","","","","","","","","","","","","","",""
"","fixation","html-keyboard-response","82","736981","0.0-30.0-0.0","null","fixation","null","","-1","-1","","","","","","","","","","","","","","","","","","","","","","","","","","","","","","","","","","","",""
"","numerosity","html-keyboard-response","83","737493","0.0-30.0-1.0","null","[Dot display: left=254, right=300, diff=46]","null","","-1","-1","254","300","46","","","","","","","","","","","","","","","","","","","","","","","","","","","","","","","","",""
"","confidence_first","html-keyboard-response","84","743444","0.0-30.0-2.0","5948.899999976158","Confidence judgement (first response)","","","-1","-1","","","","right","99","50","99","true","46","","","","","","","","","","","","","","","","","","","","","","","","","","",""
"","fixation","html-keyboard-response","85","744723","0.0-31.0-0.0","null","fixation","null","","-1","-1","","","","","","","","","","","","","","","","","","","","","","","","","","","","","","","","","","","",""
"","numerosity","html-keyboard-response","86","745235","0.0-31.0-1.0","null","[Dot display: left=300, right=254, diff=46]","null","","-1","-1","300","254","46","","","","","","","","","","","","","","","","","","","","","","","","","","","","","","","","",""
"","confidence_first","html-keyboard-response","87","758836","0.0-31.0-2.0","13597.899999976158","Confidence judgement (first response)","","","-1","-1","","","","left","100","100","50","true","45","","","","","","","","","","","","","","","","","","","","","","","","","","",""
"","expInstructions","html-button-response","88","781201","0.0-32.0-0.0","22363","expInstruc","0","","","","","","","","","","","","","","","","","","","","","","","","","","","","","","","","","","","","","","",""
"","expInstructions","html-button-response","89","814929","0.0-32.0-0.1","33726","expInstruc","0","","","","","","","","","","","","","","","","","","","","","","","","","","","","","","","","","","","","","","",""
"","expInstructions","html-button-response","90","825211","0.0-32.0-0.2","10281","expInstruc","0","","","","","","","","","","","","","","","","","","","","","","","","","","","","","","","","","","","","","","",""
"","expInstructions","html-button-response","91","840540","0.0-32.0-0.3","15328","expInstruc","0","","","","","","","","","","","","","","","","","","","","","","","","","","","","","","","","","","","","","","",""
"","expInstructions","html-button-response","92","848175","0.0-32.0-0.4","7634","expInstruc","0","","","","","","","","","","","","","","","","","","","","","","","","","","","","","","","","","","","","","","",""
"","expInstructions","html-button-response","93","859490","0.0-32.0-0.5","11314","expInstruc","0","","","","","","","","","","","","","","","","","","","","","","","","","","","","","","","","","","","","","","",""
"","expInstructions","html-button-response","94","908268","0.0-32.0-0.6","48776","expInstruc","0","","","","","","","","","","","","","","","","","","","","","","","","","","","","","","","","","","","","","","",""
"","expInstructions","html-button-response","95","923860","0.0-32.0-0.7","15591","expInstruc","0","","","","","","","","","","","","","","","","","","","","","","","","","","","","","","","","","","","","","","",""
"","expInstructions","html-button-response","96","941179","0.0-32.0-0.8","17317","expInstruc","0","","","","","","","","","","","","","","","","","","","","","","","","","","","","","","","","","","","","","","",""
"","expInstructions","html-button-response","97","947695","0.0-32.0-0.9","6515","expInstruc","0","","","","","","","","","","","","","","","","","","","","","","","","","","","","","","","","","","","","","","",""
"","expInstructions","html-button-response","98","952342","0.0-32.0-0.10","4645","expInstruc","0","","","","","","","","","","","","","","","","","","","","","","","","","","","","","","","","","","","","","","",""
"","expInstructions","html-button-response","99","966847","0.0-32.0-0.11","14504","expInstruc","0","","","","","","","","","","","","","","","","","","","","","","","","","","","","","","","","","","","","","","",""
"","expInstructions","html-button-response","100","969403","0.0-32.0-0.12","2555","expInstruc","0","","","","","","","","","","","","","","","","","","","","","","","","","","","","","","","","","","","","","","",""
"","block_message","html-button-response","101","977330","0.0-33.0","7925","block message","0","","","","","","","","","","","","","1","","","","","","","","","","","","","","","","","","","","","","","","","",""
"","fixation","html-keyboard-response","102","978598","0.0-34.0-0.0","null","fixation","null","","-1","-1","","","","","","","","","","","","","","","","","","","","","","","","","","","","","","","","","","","",""
"","numerosity","html-keyboard-response","103","979110","0.0-34.0-1.0","null","[Dot display: left=300, right=255, diff=45]","null","","-1","-1","300","255","45","","","","","","","","","","","","","","","","","","","","","","","","","","","","","","","","",""
"","confidence_first","html-keyboard-response","104","988756","0.0-34.0-2.0","9644","Confidence judgement (first response)","","","-1","-1","","","","left","95","95","50","true","45","","","","","","","","","","","","","","","","","","","","","","","","","","",""
"","forced_advice_display","html-button-response","105","993984","0.0-34.0-4.0-0.0","5226","forcedAdvice","0","","-1","-1","","","","","","","","","","","","","","","","","","","","","","","","","","","","","","","","","","","",""
"","show_advice","html-keyboard-response","106","994802","0.0-34.0-4.0-1.0","null","[advice: left]","null","","-1","-1","","","","","","","","","","","left","","","","","","","","","","","","","","","","","","","","","","","","",""
"","confidence_second","html-keyboard-response","107","998031","0.0-34.0-6.0","3226.600000023842","Confidence judgment (second response)","","","-1","-1","","","","left","95","95","50","true","45","","","","","","","","","","","","","","","","","","","","","","","","","","",""
"","consolidated-trial-data","consolidated-trial-data","108","998047","0.0-35.0","null","consolidated-trial-data","null","","","","","","","","","","","","","","","0","0","0","300","255","45","left","95","true","9644","2","nan","left","left","95","true","true","3226.600000023842","","","","","","",""
"","fixation","html-keyboard-response","109","999305","0.0-36.0-0.0","null","fixation","null","","-1","-1","","","","","","","","","","","","","","","","","","","","","","","","","","","","","","","","","","","",""
"","numerosity","html-keyboard-response","110","999822","0.0-36.0-1.0","null","[Dot display: left=300, right=255, diff=45]","null","","-1","-1","300","255","45","","","","","","","","","","","","","","","","","","","","","","","","","","","","","","","","",""
"","confidence_first","html-keyboard-response","111","1005459","0.0-36.0-2.0","5635","Confidence judgement (first response)","","","-1","-1","","","","left","99.75","99.75","50","true","44","","","","","","","","","","","","","","","","","","","","","","","","","","",""
"","no_advice_display","html-button-response","112","1006963","0.0-36.0-5.0-0.0","1503","noAdvice","0","","-1","-1","","","","","","","","","","","","","","","","","","","","","","","","","","","","","","","","","","","",""
"","blank_screen","html-keyboard-response","113","1007773","0.0-36.0-5.0-1.0","null","blank","null","","-1","-1","","","","","","","","","","","","","","","","","","","","","","","","","","","","","","","","","","","",""
"","confidence_second","html-keyboard-response","114","1010946","0.0-36.0-6.0","3171.1999999284744","Confidence judgment (second response)","","","-1","-1","","","","left","99.75","99.75","50","true","44","","","","","","","","","","","","","","","","","","","","","","","","","","",""
"","consolidated-trial-data","consolidated-trial-data","115","1010949","0.0-37.0","null","consolidated-trial-data","null","","","","","","","","","","","","","","","0","1","1","300","255","45","left","99.75","true","5635","3","nan","left","left","99.75","true","true","3171.1999999284744","","","","","","",""
"","attncheck","html-button-response","116","1023291","0.0-38.0","12339","attncheck","1","","","","","","","","","","","","","","","","","","","","","","","","","","","","","","","","","true","Continue","","","","",""
"","fixation","html-keyboard-response","117","1024680","0.0-39.0-0.0","null","fixation","null","","-1","-1","","","","","","","","","","","","","","","","","","","","","","","","","","","","","","","","","","","",""
"","numerosity","html-keyboard-response","118","1025185","0.0-39.0-1.0","null","[Dot display: left=300, right=256, diff=44]","null","","-1","-1","300","256","44","","","","","","","","","","","","","","","","","","","","","","","","","","","","","","","","",""
"","confidence_first","html-keyboard-response","119","1028521","0.0-39.0-2.0","3334","Confidence judgement (first response)","","","-1","-1","","","","left","99.5","99.5","50","true","44","","","","","","","","","","","","","","","","","","","","","","","","","","",""
"","no_advice_display","html-button-response","120","1033438","0.0-39.0-5.0-0.0","4915","noAdvice","0","","-1","-1","","","","","","","","","","","","","","","","","","","","","","","","","","","","","","","","","","","",""
"","blank_screen","html-keyboard-response","121","1034239","0.0-39.0-5.0-1.0","null","blank","null","","-1","-1","","","","","","","","","","","","","","","","","","","","","","","","","","","","","","","","","","","",""
"","confidence_second","html-keyboard-response","122","1039291","0.0-39.0-6.0","5051.099999904633","Confidence judgment (second response)","","","-1","-1","","","","left","98.25","98.25","50","true","44","","","","","","","","","","","","","","","","","","","","","","","","","","",""
"","consolidated-trial-data","consolidated-trial-data","123","1039294","0.0-40.0","null","consolidated-trial-data","null","","","","","","","","","","","","","","","0","2","2","300","256","44","left","99.5","true","3334","3","nan","left","left","98.25","true","true","5051.099999904633","","","","","","",""
"","fixation","html-keyboard-response","124","1040592","0.0-41.0-0.0","null","fixation","null","","-1","-1","","","","","","","","","","","","","","","","","","","","","","","","","","","","","","","","","","","",""
"","numerosity","html-keyboard-response","125","1041102","0.0-41.0-1.0","null","[Dot display: left=256, right=300, diff=44]","null","","-1","-1","256","300","44","","","","","","","","","","","","","","","","","","","","","","","","","","","","","","","","",""
"","confidence_first","html-keyboard-response","126","1045248","0.0-41.0-2.0","4143.399999976158","Confidence judgement (first response)","","","-1","-1","","","","right","87.25","50","87.25","true","43","","","","","","","","","","","","","","","","","","","","","","","","","","",""
"","forced_advice_display","html-button-response","127","1049431","0.0-41.0-4.0-0.0","4181","forcedAdvice","0","","-1","-1","","","","","","","","","","","","","","","","","","","","","","","","","","","","","","","","","","","",""
"","show_advice","html-keyboard-response","128","1050236","0.0-41.0-4.0-1.0","null","[advice: right]","null","","-1","-1","","","","","","","","","","","right","","","","","","","","","","","","","","","","","","","","","","","","",""
"","confidence_second","html-keyboard-response","129","1055531","0.0-41.0-6.0","5292.899999976158","Confidence judgment (second response)","","","-1","-1","","","","right","94.75","50","94.75","true","43","","","","","","","","","","","","","","","","","","","","","","","","","","",""
"","consolidated-trial-data","consolidated-trial-data","130","1055534","0.0-42.0","null","consolidated-trial-data","null","","","","","","","","","","","","","","","0","3","3","256","300","44","right","87.25","true","4143.399999976158","2","nan","right","right","94.75","true","true","5292.899999976158","","","","","","",""
"","fixation","html-keyboard-response","131","1056799","0.0-43.0-0.0","null","fixation","null","","-1","-1","","","","","","","","","","","","","","","","","","","","","","","","","","","","","","","","","","","",""
"","numerosity","html-keyboard-response","132","1057313","0.0-43.0-1.0","null","[Dot display: left=257, right=300, diff=43]","null","","-1","-1","257","300","43","","","","","","","","","","","","","","","","","","","","","","","","","","","","","","","","",""
"","confidence_first","html-keyboard-response","133","1062472","0.0-43.0-2.0","5157","Confidence judgement (first response)","","","-1","-1","","","","right","99.5","50","99.5","true","43","","","","","","","","","","","","","","","","","","","","","","","","","","",""
"","no_advice_display","html-button-response","134","1065901","0.0-43.0-5.0-0.0","3428","noAdvice","0","","-1","-1","","","","","","","","","","","","","","","","","","","","","","","","","","","","","","","","","","","",""
"","blank_screen","html-keyboard-response","135","1066717","0.0-43.0-5.0-1.0","null","blank","null","","-1","-1","","","","","","","","","","","","","","","","","","","","","","","","","","","","","","","","","","","",""
"","confidence_second","html-keyboard-response","136","1074290","0.0-43.0-6.0","7570.599999904633","Confidence judgment (second response)","","","-1","-1","","","","right","100","50","100","true","43","","","","","","","","","","","","","","","","","","","","","","","","","","",""
"","consolidated-trial-data","consolidated-trial-data","137","1074292","0.0-44.0","null","consolidated-trial-data","null","","","","","","","","","","","","","","","0","4","4","257","300","43","right","99.5","true","5157","3","nan","right","right","100","true","true","7570.599999904633","","","","","","",""
"","fixation","html-keyboard-response","138","1075793","0.0-45.0-0.0","null","fixation","null","","-1","-1","","","","","","","","","","","","","","","","","","","","","","","","","","","","","","","","","","","",""
"","numerosity","html-keyboard-response","139","1076300","0.0-45.0-1.0","null","[Dot display: left=300, right=257, diff=43]","null","","-1","-1","300","257","43","","","","","","","","","","","","","","","","","","","","","","","","","","","","","","","","",""
"","confidence_first","html-keyboard-response","140","1080047","0.0-45.0-2.0","3745.600000023842","Confidence judgement (first response)","","","-1","-1","","","","left","99.25","99.25","50","true","43","","","","","","","","","","","","","","","","","","","","","","","","","","",""
"","advice_choice","html-button-response","141","1082078","0.0-45.0-3.0-0.0","2029","[advice choice Y,N]","0","","-1","-1","","","","","","","","","","","","","","","","","","","","","","","","","","","","","","","","","","","",""
"","show_advice","html-keyboard-response","142","1082883","0.0-45.0-3.0-1.0-0.0","null","[advice: left]","null","","-1","-1","","","","","","","","","","","left","","","","","","","","","","","","","","","","","","","","","","","","",""
"","confidence_second","html-keyboard-response","143","1088052","0.0-45.0-6.0","5167.200000047684","Confidence judgment (second response)","","","-1","-1","","","","left","100","100","50","true","43","","","","","","","","","","","","","","","","","","","","","","","","","","",""
"","consolidated-trial-data","consolidated-trial-data","144","1088055","0.0-46.0","null","consolidated-trial-data","null","","","","","","","","","","","","","","","0","5","5","300","257","43","left","99.25","true","3745.600000023842","1","yes","left","left","100","true","true","5167.200000047684","","","","","","",""
"","fixation","html-keyboard-response","145","1089517","0.0-47.0-0.0","null","fixation","null","","-1","-1","","","","","","","","","","","","","","","","","","","","","","","","","","","","","","","","","","","",""
"","numerosity","html-keyboard-response","146","1090033","0.0-47.0-1.0","null","[Dot display: left=257, right=300, diff=43]","null","","-1","-1","257","300","43","","","","","","","","","","","","","","","","","","","","","","","","","","","","","","","","",""
"","confidence_first","html-keyboard-response","147","1094369","0.0-47.0-2.0","4333.5","Confidence judgement (first response)","","","-1","-1","","","","right","99.75","50","99.75","true","42","","","","","","","","","","","","","","","","","","","","","","","","","","",""
"","advice_choice","html-button-response","148","1096296","0.0-47.0-3.0-0.0","1925","[advice choice Y,N]","0","","-1","-1","","","","","","","","","","","","","","","","","","","","","","","","","","","","","","","","","","","",""
"","show_advice","html-keyboard-response","149","1097104","0.0-47.0-3.0-1.0-0.0","null","[advice: left]","null","","-1","-1","","","","","","","","","","","left","","","","","","","","","","","","","","","","","","","","","","","","",""
"","confidence_second","html-keyboard-response","150","1103940","0.0-47.0-6.0","6834.700000047684","Confidence judgment (second response)","","","-1","-1","","","","right","100","50","100","true","42","","","","","","","","","","","","","","","","","","","","","","","","","","",""
"","consolidated-trial-data","consolidated-trial-data","151","1103942","0.0-48.0","null","consolidated-trial-data","null","","","","","","","","","","","","","","","0","6","6","257","300","43","right","99.75","true","4333.5","1","yes","left","right","100","false","true","6834.700000047684","","","","","","",""
"","fixation","html-keyboard-response","152","1105406","0.0-49.0-0.0","null","fixation","null","","-1","-1","","","","","","","","","","","","","","","","","","","","","","","","","","","","","","","","","","","",""
"","numerosity","html-keyboard-response","153","1105911","0.0-49.0-1.0","null","[Dot display: left=258, right=300, diff=42]","null","","-1","-1","258","300","42","","","","","","","","","","","","","","","","","","","","","","","","","","","","","","","","",""
"","confidence_first","html-keyboard-response","154","1109856","0.0-49.0-2.0","3944.1999999284744","Confidence judgement (first response)","","","-1","-1","","","","right","92.5","50","92.5","true","42","","","","","","","","","","","","","","","","","","","","","","","","","","",""
"","advice_choice","html-button-response","155","1112343","0.0-49.0-3.0-0.0","2486","[advice choice Y,N]","0","","-1","-1","","","","","","","","","","","","","","","","","","","","","","","","","","","","","","","","","","","",""
"","show_advice","html-keyboard-response","156","1113156","0.0-49.0-3.0-1.0-0.0","null","[advice: right]","null","","-1","-1","","","","","","","","","","","right","","","","","","","","","","","","","","","","","","","","","","","","",""
"","confidence_second","html-keyboard-response","157","1116717","0.0-49.0-6.0","3558.5","Confidence judgment (second response)","","","-1","-1","","","","right","99.25","50","99.25","true","42","","","","","","","","","","","","","","","","","","","","","","","","","","",""
"","consolidated-trial-data","consolidated-trial-data","158","1116719","0.0-50.0","null","consolidated-trial-data","null","","","","","","","","","","","","","","","0","7","7","258","300","42","right","92.5","true","3944.1999999284744","1","yes","right","right","99.25","true","true","3558.5","","","","","","",""
"","fixation","html-keyboard-response","159","1118078","0.0-51.0-0.0","null","fixation","null","","-1","-1","","","","","","","","","","","","","","","","","","","","","","","","","","","","","","","","","","","",""
"","numerosity","html-keyboard-response","160","1118589","0.0-51.0-1.0","null","[Dot display: left=300, right=258, diff=42]","null","","-1","-1","300","258","42","","","","","","","","","","","","","","","","","","","","","","","","","","","","","","","","",""
"","confidence_first","html-keyboard-response","161","1121916","0.0-51.0-2.0","3324.600000023842","Confidence judgement (first response)","","","-1","-1","","","","right","87.75","50","87.75","false","43","","","","","","","","","","","","","","","","","","","","","","","","","","",""
"","advice_choice","html-button-response","162","1127208","0.0-51.0-3.0-0.0","5291","[advice choice Y,N]","0","","-1","-1","","","","","","","","","","","","","","","","","","","","","","","","","","","","","","","","","","","",""
"","show_advice","html-keyboard-response","163","1128014","0.0-51.0-3.0-1.0-0.0","null","[advice: left]","null","","-1","-1","","","","","","","","","","","left","","","","","","","","","","","","","","","","","","","","","","","","",""
"","confidence_second","html-keyboard-response","164","1136700","0.0-51.0-6.0","8684.5","Confidence judgment (second response)","","","-1","-1","","","","left","91","91","50","true","43","","","","","","","","","","","","","","","","","","","","","","","","","","",""
"","consolidated-trial-data","consolidated-trial-data","165","1136703","0.0-52.0","null","consolidated-trial-data","null","","","","","","","","","","","","","","","0","8","8","300","258","42","right","87.75","false","3324.600000023842","1","yes","left","left","91","true","true","8684.5","","","","","","",""
"","fixation","html-keyboard-response","166","1137966","0.0-53.0-0.0","null","fixation","null","","-1","-1","","","","","","","","","","","","","","","","","","","","","","","","","","","","","","","","","","","",""
"","numerosity","html-keyboard-response","167","1138476","0.0-53.0-1.0","null","[Dot display: left=257, right=300, diff=43]","null","","-1","-1","257","300","43","","","","","","","","","","","","","","","","","","","","","","","","","","","","","","","","",""
"","confidence_first","html-keyboard-response","168","1141979","0.0-53.0-2.0","3501.1999999284744","Confidence judgement (first response)","","","-1","-1","","","","left","83.75","83.75","50","false","45","","","","","","","","","","","","","","","","","","","","","","","","","","",""
"","forced_advice_display","html-button-response","169","1144527","0.0-53.0-4.0-0.0","2546","forcedAdvice","0","","-1","-1","","","","","","","","","","","","","","","","","","","","","","","","","","","","","","","","","","","",""
"","show_advice","html-keyboard-response","170","1145329","0.0-53.0-4.0-1.0","null","[advice: left]","null","","-1","-1","","","","","","","","","","","left","","","","","","","","","","","","","","","","","","","","","","","","",""
"","confidence_second","html-keyboard-response","171","1149806","0.0-53.0-6.0","4475.399999976158","Confidence judgment (second response)","","","-1","-1","","","","left","99.75","99.75","50","false","45","","","","","","","","","","","","","","","","","","","","","","","","","","",""
"","consolidated-trial-data","consolidated-trial-data","172","1149808","0.0-54.0","null","consolidated-trial-data","null","","","","","","","","","","","","","","","0","9","9","257","300","43","left","83.75","false","3501.1999999284744","2","yes","left","left","99.75","false","false","4475.399999976158","","","","","","",""
"","fixation","html-keyboard-response","173","1151185","0.0-55.0-0.0","null","fixation","null","","-1","-1","","","","","","","","","","","","","","","","","","","","","","","","","","","","","","","","","","","",""
"","numerosity","html-keyboard-response","174","1151700","0.0-55.0-1.0","null","[Dot display: left=255, right=300, diff=45]","null","","-1","-1","255","300","45","","","","","","","","","","","","","","","","","","","","","","","","","","","","","","","","",""
"","confidence_first","html-keyboard-response","175","1161296","0.0-55.0-2.0","9593.699999928474","Confidence judgement (first response)","","","-1","-1","","","","right","95.25","50","95.25","true","45","","","","","","","","","","","","","","","","","","","","","","","","","","",""
"","no_advice_display","html-button-response","176","1163023","0.0-55.0-5.0-0.0","1726","noAdvice","0","","-1","-1","","","","","","","","","","","","","","","","","","","","","","","","","","","","","","","","","","","",""
"","blank_screen","html-keyboard-response","177","1163833","0.0-55.0-5.0-1.0","null","blank","null","","-1","-1","","","","","","","","","","","","","","","","","","","","","","","","","","","","","","","","","","","",""
"","confidence_second","html-keyboard-response","178","1167685","0.0-55.0-6.0","3850.0999999046326","Confidence judgment (second response)","","","-1","-1","","","","right","99.5","50","99.5","true","45","","","","","","","","","","","","","","","","","","","","","","","","","","",""
"","consolidated-trial-data","consolidated-trial-data","179","1167687","0.0-56.0","null","consolidated-trial-data","null","","","","","","","","","","","","","","","0","10","10","255","300","45","right","95.25","true","9593.699999928474","3","yes","left","right","99.5","false","true","3850.0999999046326","","","","","","",""
"","fixation","html-keyboard-response","180","1169173","0.0-57.0-0.0","null","fixation","null","","-1","-1","","","","","","","","","","","","","","","","","","","","","","","","","","","","","","","","","","","",""
"","numerosity","html-keyboard-response","181","1169678","0.0-57.0-1.0","null","[Dot display: left=255, right=300, diff=45]","null","","-1","-1","255","300","45","","","","","","","","","","","","","","","","","","","","","","","","","","","","","","","","",""
"","confidence_first","html-keyboard-response","182","1174433","0.0-57.0-2.0","4752.100000023842","Confidence judgement (first response)","","","-1","-1","","","","left","99","99","50","false","46","","","","","","","","","","","","","","","","","","","","","","","","","","",""
"","advice_choice","html-button-response","183","1176359","0.0-57.0-3.0-0.0","1925","[advice choice Y,N]","0","","-1","-1","","","","","","","","","","","","","","","","","","","","","","","","","","","","","","","","","","","",""
"","show_advice","html-keyboard-response","184","1177161","0.0-57.0-3.0-1.0-0.0","null","[advice: right]","null","","-1","-1","","","","","","","","","","","right","","","","","","","","","","","","","","","","","","","","","","","","",""
"","confidence_second","html-keyboard-response","185","1181230","0.0-57.0-6.0","4067.5999999046326","Confidence judgment (second response)","","","-1","-1","","","","left","98.75","98.75","50","false","46","","","","","","","","","","","","","","","","","","","","","","","","","","",""
"","consolidated-trial-data","consolidated-trial-data","186","1181232","0.0-58.0","null","consolidated-trial-data","null","","","","","","","","","","","","","","","0","11","11","255","300","45","left","99","false","4752.100000023842","1","yes","right","left","98.75","true","false","4067.5999999046326","","","","","","",""
"","fixation","html-keyboard-response","187","1182480","0.0-59.0-0.0","null","fixation","null","","-1","-1","","","","","","","","","","","","","","","","","","","","","","","","","","","","","","","","","","","",""
"","numerosity","html-keyboard-response","188","1182994","0.0-59.0-1.0","null","[Dot display: left=300, right=254, diff=46]","null","","-1","-1","300","254","46","","","","","","","","","","","","","","","","","","","","","","","","","","","","","","","","",""
"","confidence_first","html-keyboard-response","189","1186163","0.0-59.0-2.0","3167.2999999523163","Confidence judgement (first response)","","","-1","-1","","","","left","99","99","50","true","46","","","","","","","","","","","","","","","","","","","","","","","","","","",""
"","no_advice_display","html-button-response","190","1187803","0.0-59.0-5.0-0.0","1638","noAdvice","0","","-1","-1","","","","","","","","","","","","","","","","","","","","","","","","","","","","","","","","","","","",""
"","blank_screen","html-keyboard-response","191","1188604","0.0-59.0-5.0-1.0","null","blank","null","","-1","-1","","","","","","","","","","","","","","","","","","","","","","","","","","","","","","","","","","","",""
"","confidence_second","html-keyboard-response","192","1194464","0.0-59.0-6.0","5858.800000071526","Confidence judgment (second response)","","","-1","-1","","","","left","99.25","99.25","50","true","46","","","","","","","","","","","","","","","","","","","","","","","","","","",""
"","consolidated-trial-data","consolidated-trial-data","193","1194466","0.0-60.0","null","consolidated-trial-data","null","","","","","","","","","","","","","","","0","12","12","300","254","46","left","99","true","3167.2999999523163","3","yes","right","left","99.25","false","true","5858.800000071526","","","","","","",""
"","fixation","html-keyboard-response","194","1195897","0.0-61.0-0.0","null","fixation","null","","-1","-1","","","","","","","","","","","","","","","","","","","","","","","","","","","","","","","","","","","",""
"","numerosity","html-keyboard-response","195","1196412","0.0-61.0-1.0","null","[Dot display: left=300, right=254, diff=46]","null","","-1","-1","300","254","46","","","","","","","","","","","","","","","","","","","","","","","","","","","","","","","","",""
"","confidence_first","html-keyboard-response","196","1199925","0.0-61.0-2.0","3510.5","Confidence judgement (first response)","","","-1","-1","","","","left","98.5","98.5","50","true","45","","","","","","","","","","","","","","","","","","","","","","","","","","",""
"","forced_advice_display","html-button-response","197","1201389","0.0-61.0-4.0-0.0","1462","forcedAdvice","0","","-1","-1","","","","","","","","","","","","","","","","","","","","","","","","","","","","","","","","","","","",""
"","show_advice","html-keyboard-response","198","1202198","0.0-61.0-4.0-1.0","null","[advice: left]","null","","-1","-1","","","","","","","","","","","left","","","","","","","","","","","","","","","","","","","","","","","","",""
"","confidence_second","html-keyboard-response","199","1207025","0.0-61.0-6.0","4825.199999928474","Confidence judgment (second response)","","","-1","-1","","","","left","100","100","50","true","45","","","","","","","","","","","","","","","","","","","","","","","","","","",""
"","consolidated-trial-data","consolidated-trial-data","200","1207027","0.0-62.0","null","consolidated-trial-data","null","","","","","","","","","","","","","","","0","13","13","300","254","46","left","98.5","true","3510.5","2","yes","left","left","100","true","true","4825.199999928474","","","","","","",""
"","fixation","html-keyboard-response","201","1208244","0.0-63.0-0.0","null","fixation","null","","-1","-1","","","","","","","","","","","","","","","","","","","","","","","","","","","","","","","","","","","",""
"","numerosity","html-keyboard-response","202","1208764","0.0-63.0-1.0","null","[Dot display: left=300, right=255, diff=45]","null","","-1","-1","300","255","45","","","","","","","","","","","","","","","","","","","","","","","","","","","","","","","","",""
"","confidence_first","html-keyboard-response","203","1213687","0.0-63.0-2.0","4920.899999976158","Confidence judgement (first response)","","","-1","-1","","","","left","87.75","87.75","50","true","45","","","","","","","","","","","","","","","","","","","","","","","","","","",""
"","forced_advice_display","html-button-response","204","1215501","0.0-63.0-4.0-0.0","1812","forcedAdvice","0","","-1","-1","","","","","","","","","","","","","","","","","","","","","","","","","","","","","","","","","","","",""
"","show_advice","html-keyboard-response","205","1216315","0.0-63.0-4.0-1.0","null","[advice: left]","null","","-1","-1","","","","","","","","","","","left","","","","","","","","","","","","","","","","","","","","","","","","",""
"","confidence_second","html-keyboard-response","206","1218843","0.0-63.0-6.0","2525.3000000715256","Confidence judgment (second response)","","","-1","-1","","","","left","98.5","98.5","50","true","45","","","","","","","","","","","","","","","","","","","","","","","","","","",""
"","consolidated-trial-data","consolidated-trial-data","207","1218845","0.0-64.0","null","consolidated-trial-data","null","","","","","","","","","","","","","","","0","14","14","300","255","45","left","87.75","true","4920.899999976158","2","yes","left","left","98.5","true","true","2525.3000000715256","","","","","","",""
"","block_message","html-button-response","208","1554293","0.0-65.0","335447","block message","0","","","","","","","","","","","","","2","","","","","","","","","","","","","","","","","","","","","","","","","",""
"","fixation","html-keyboard-response","209","1555594","0.0-66.0-0.0","null","fixation","null","","-1","-1","","","","","","","","","","","","","","","","","","","","","","","","","","","","","","","","","","","",""
"","numerosity","html-keyboard-response","210","1556098","0.0-66.0-1.0","null","[Dot display: left=300, right=255, diff=45]","null","","-1","-1","300","255","45","","","","","","","","","","","","","","","","","","","","","","","","","","","","","","","","",""
"","confidence_first","html-keyboard-response","211","1559488","0.0-66.0-2.0","3387.899999976158","Confidence judgement (first response)","","","-1","-1","","","","right","89.75","50","89.75","false","46","","","","","","","","","","","","","","","","","","","","","","","","","","",""
"","forced_advice_display","html-button-response","212","1561068","0.0-66.0-4.0-0.0","1579","forcedAdvice","0","","-1","-1","","","","","","","","","","","","","","","","","","","","","","","","","","","","","","","","","","","",""
"","show_advice","html-keyboard-response","213","1561878","0.0-66.0-4.0-1.0","null","[advice: left]","null","","-1","-1","","","","","","","","","","","left","","","","","","","","","","","","","","","","","","","","","","","","",""
"","confidence_second","html-keyboard-response","214","1564826","0.0-66.0-6.0","2946.0999999046326","Confidence judgment (second response)","","","-1","-1","","","","right","92.5","50","92.5","false","46","","","","","","","","","","","","","","","","","","","","","","","","","","",""
"","consolidated-trial-data","consolidated-trial-data","215","1564828","0.0-67.0","null","consolidated-trial-data","null","","","","","","","","","","","","","","","1","0","15","300","255","45","right","89.75","false","3387.899999976158","2","yes","left","right","92.5","true","false","2946.0999999046326","","","","","","",""
"","fixation","html-keyboard-response","216","1566313","0.0-68.0-0.0","null","fixation","null","","-1","-1","","","","","","","","","","","","","","","","","","","","","","","","","","","","","","","","","","","",""
"","numerosity","html-keyboard-response","217","1566826","0.0-68.0-1.0","null","[Dot display: left=300, right=254, diff=46]","null","","-1","-1","300","254","46","","","","","","","","","","","","","","","","","","","","","","","","","","","","","","","","",""
"","confidence_first","html-keyboard-response","218","1571456","0.0-68.0-2.0","4627.399999976158","Confidence judgement (first response)","","","-1","-1","","","","left","97","97","50","true","46","","","","","","","","","","","","","","","","","","","","","","","","","","",""
"","no_advice_display","html-button-response","219","1574054","0.0-68.0-5.0-0.0","2597","noAdvice","0","","-1","-1","","","","","","","","","","","","","","","","","","","","","","","","","","","","","","","","","","","",""
"","blank_screen","html-keyboard-response","220","1574871","0.0-68.0-5.0-1.0","null","blank","null","","-1","-1","","","","","","","","","","","","","","","","","","","","","","","","","","","","","","","","","","","",""
"","confidence_second","html-keyboard-response","221","1578739","0.0-68.0-6.0","3866.100000023842","Confidence judgment (second response)","","","-1","-1","","","","left","97","97","50","true","46","","","","","","","","","","","","","","","","","","","","","","","","","","",""
"","consolidated-trial-data","consolidated-trial-data","222","1578741","0.0-69.0","null","consolidated-trial-data","null","","","","","","","","","","","","","","","1","1","16","300","254","46","left","97","true","4627.399999976158","3","yes","left","left","97","true","true","3866.100000023842","","","","","","",""
"","fixation","html-keyboard-response","223","1580071","0.0-70.0-0.0","null","fixation","null","","-1","-1","","","","","","","","","","","","","","","","","","","","","","","","","","","","","","","","","","","",""
"","numerosity","html-keyboard-response","224","1580586","0.0-70.0-1.0","null","[Dot display: left=254, right=300, diff=46]","null","","-1","-1","254","300","46","","","","","","","","","","","","","","","","","","","","","","","","","","","","","","","","",""
"","confidence_first","html-keyboard-response","225","1583370","0.0-70.0-2.0","2782.5","Confidence judgement (first response)","","","-1","-1","","","","left","91.5","91.5","50","false","48","","","","","","","","","","","","","","","","","","","","","","","","","","",""
"","no_advice_display","html-button-response","226","1585424","0.0-70.0-5.0-0.0","2052","noAdvice","0","","-1","-1","","","","","","","","","","","","","","","","","","","","","","","","","","","","","","","","","","","",""
"","blank_screen","html-keyboard-response","227","1586238","0.0-70.0-5.0-1.0","null","blank","null","","-1","-1","","","","","","","","","","","","","","","","","","","","","","","","","","","","","","","","","","","",""
"","confidence_second","html-keyboard-response","228","1592765","0.0-70.0-6.0","6524.600000023842","Confidence judgment (second response)","","","-1","-1","","","","left","95.5","95.5","50","false","48","","","","","","","","","","","","","","","","","","","","","","","","","","",""
"","consolidated-trial-data","consolidated-trial-data","229","1592767","0.0-71.0","null","consolidated-trial-data","null","","","","","","","","","","","","","","","1","2","17","254","300","46","left","91.5","false","2782.5","3","yes","left","left","95.5","false","false","6524.600000023842","","","","","","",""
"","fixation","html-keyboard-response","230","1594185","0.0-72.0-0.0","null","fixation","null","","-1","-1","","","","","","","","","","","","","","","","","","","","","","","","","","","","","","","","","","","",""
"","numerosity","html-keyboard-response","231","1594699","0.0-72.0-1.0","null","[Dot display: left=252, right=300, diff=48]","null","","-1","-1","252","300","48","","","","","","","","","","","","","","","","","","","","","","","","","","","","","","","","",""
"","confidence_first","html-keyboard-response","232","1598003","0.0-72.0-2.0","3302.2000000476837","Confidence judgement (first response)","","","-1","-1","","","","right","88","50","88","true","47","","","","","","","","","","","","","","","","","","","","","","","","","","",""
"","forced_advice_display","html-button-response","233","1599753","0.0-72.0-4.0-0.0","1749","forcedAdvice","0","","-1","-1","","","","","","","","","","","","","","","","","","","","","","","","","","","","","","","","","","","",""
"","show_advice","html-keyboard-response","234","1600558","0.0-72.0-4.0-1.0","null","[advice: right]","null","","-1","-1","","","","","","","","","","","right","","","","","","","","","","","","","","","","","","","","","","","","",""
"","confidence_second","html-keyboard-response","235","1603680","0.0-72.0-6.0","3120.600000023842","Confidence judgment (second response)","","","-1","-1","","","","right","92.5","50","92.5","true","47","","","","","","","","","","","","","","","","","","","","","","","","","","",""
"","consolidated-trial-data","consolidated-trial-data","236","1603683","0.0-73.0","null","consolidated-trial-data","null","","","","","","","","","","","","","","","1","3","18","252","300","48","right","88","true","3302.2000000476837","2","yes","right","right","92.5","true","true","3120.600000023842","","","","","","",""
"","fixation","html-keyboard-response","237","1605180","0.0-74.0-0.0","null","fixation","null","","-1","-1","","","","","","","","","","","","","","","","","","","","","","","","","","","","","","","","","","","",""
"","numerosity","html-keyboard-response","238","1605692","0.0-74.0-1.0","null","[Dot display: left=253, right=300, diff=47]","null","","-1","-1","253","300","47","","","","","","","","","","","","","","","","","","","","","","","","","","","","","","","","",""
"","confidence_first","html-keyboard-response","239","1608230","0.0-74.0-2.0","2535.5","Confidence judgement (first response)","","","-1","-1","","","","right","88.5","50","88.5","true","47","","","","","","","","","","","","","","","","","","","","","","","","","","",""
"","no_advice_display","html-button-response","240","1609836","0.0-74.0-5.0-0.0","1604","noAdvice","0","","-1","-1","","","","","","","","","","","","","","","","","","","","","","","","","","","","","","","","","","","",""
"","blank_screen","html-keyboard-response","241","1610643","0.0-74.0-5.0-1.0","null","blank","null","","-1","-1","","","","","","","","","","","","","","","","","","","","","","","","","","","","","","","","","","","",""
"","confidence_second","html-keyboard-response","242","1612947","0.0-74.0-6.0","2301.600000023842","Confidence judgment (second response)","","","-1","-1","","","","right","89.75","50","89.75","true","47","","","","","","","","","","","","","","","","","","","","","","","","","","",""
"","consolidated-trial-data","consolidated-trial-data","243","1612950","0.0-75.0","null","consolidated-trial-data","null","","","","","","","","","","","","","","","1","4","19","253","300","47","right","88.5","true","2535.5","3","yes","right","right","89.75","true","true","2301.600000023842","","","","","","",""
"","fixation","html-keyboard-response","244","1614253","0.0-76.0-0.0","null","fixation","null","","-1","-1","","","","","","","","","","","","","","","","","","","","","","","","","","","","","","","","","","","",""
"","numerosity","html-keyboard-response","245","1614765","0.0-76.0-1.0","null","[Dot display: left=300, right=253, diff=47]","null","","-1","-1","300","253","47","","","","","","","","","","","","","","","","","","","","","","","","","","","","","","","","",""
"","confidence_first","html-keyboard-response","246","1617993","0.0-76.0-2.0","3225.5","Confidence judgement (first response)","","","-1","-1","","","","right","89.75","50","89.75","false","48","","","","","","","","","","","","","","","","","","","","","","","","","","",""
"","advice_choice","html-button-response","247","1620336","0.0-76.0-3.0-0.0","2342","[advice choice Y,N]","0","","-1","-1","","","","","","","","","","","","","","","","","","","","","","","","","","","","","","","","","","","",""
"","show_advice","html-keyboard-response","248","1621138","0.0-76.0-3.0-1.0-0.0","null","[advice: left]","null","","-1","-1","","","","","","","","","","","left","","","","","","","","","","","","","","","","","","","","","","","","",""
"","confidence_second","html-keyboard-response","249","1624317","0.0-76.0-6.0","3177.7000000476837","Confidence judgment (second response)","","","-1","-1","","","","left","88.75","88.75","50","true","48","","","","","","","","","","","","","","","","","","","","","","","","","","",""
"","consolidated-trial-data","consolidated-trial-data","250","1624319","0.0-77.0","null","consolidated-trial-data","null","","","","","","","","","","","","","","","1","5","20","300","253","47","right","89.75","false","3225.5","1","yes","left","left","88.75","true","true","3177.7000000476837","","","","","","",""
"","fixation","html-keyboard-response","251","1625596","0.0-78.0-0.0","null","fixation","null","","-1","-1","","","","","","","","","","","","","","","","","","","","","","","","","","","","","","","","","","","",""
"","numerosity","html-keyboard-response","252","1626106","0.0-78.0-1.0","null","[Dot display: left=300, right=252, diff=48]","null","","-1","-1","300","252","48","","","","","","","","","","","","","","","","","","","","","","","","","","","","","","","","",""
"","confidence_first","html-keyboard-response","253","1628996","0.0-78.0-2.0","2887.600000023842","Confidence judgement (first response)","","","-1","-1","","","","left","90.75","90.75","50","true","48","","","","","","","","","","","","","","","","","","","","","","","","","","",""
"","advice_choice","html-button-response","254","1631170","0.0-78.0-3.0-0.0","2173","[advice choice Y,N]","0","","-1","-1","","","","","","","","","","","","","","","","","","","","","","","","","","","","","","","","","","","",""
"","show_advice","html-keyboard-response","255","1631973","0.0-78.0-3.0-1.0-0.0","null","[advice: left]","null","","-1","-1","","","","","","","","","","","left","","","","","","","","","","","","","","","","","","","","","","","","",""
"","confidence_second","html-keyboard-response","256","1634369","0.0-78.0-6.0","2394.399999976158","Confidence judgment (second response)","","","-1","-1","","","","left","97.5","97.5","50","true","48","","","","","","","","","","","","","","","","","","","","","","","","","","",""
"","consolidated-trial-data","consolidated-trial-data","257","1634371","0.0-79.0","null","consolidated-trial-data","null","","","","","","","","","","","","","","","1","6","21","300","252","48","left","90.75","true","2887.600000023842","1","yes","left","left","97.5","true","true","2394.399999976158","","","","","","",""
"","fixation","html-keyboard-response","258","1635759","0.0-80.0-0.0","null","fixation","null","","-1","-1","","","","","","","","","","","","","","","","","","","","","","","","","","","","","","","","","","","",""
"","numerosity","html-keyboard-response","259","1636272","0.0-80.0-1.0","null","[Dot display: left=300, right=252, diff=48]","null","","-1","-1","300","252","48","","","","","","","","","","","","","","","","","","","","","","","","","","","","","","","","",""
"","confidence_first","html-keyboard-response","260","1638959","0.0-80.0-2.0","2684.5","Confidence judgement (first response)","","","-1","-1","","","","left","96","96","50","true","48","","","","","","","","","","","","","","","","","","","","","","","","","","",""
"","advice_choice","html-button-response","261","1640565","0.0-80.0-3.0-0.0","1605","[advice choice Y,N]","0","","-1","-1","","","","","","","","","","","","","","","","","","","","","","","","","","","","","","","","","","","",""
"","show_advice","html-keyboard-response","262","1641373","0.0-80.0-3.0-1.0-0.0","null","[advice: left]","null","","-1","-1","","","","","","","","","","","left","","","","","","","","","","","","","","","","","","","","","","","","",""
"","confidence_second","html-keyboard-response","263","1662067","0.0-80.0-6.0","20693.200000047684","Confidence judgment (second response)","","","-1","-1","","","","left","98.25","98.25","50","true","48","","","","","","","","","","","","","","","","","","","","","","","","","","",""
"","consolidated-trial-data","consolidated-trial-data","264","1662069","0.0-81.0","null","consolidated-trial-data","null","","","","","","","","","","","","","","","1","7","22","300","252","48","left","96","true","2684.5","1","yes","left","left","98.25","true","true","20693.200000047684","","","","","","",""
"","fixation","html-keyboard-response","265","1663560","0.0-82.0-0.0","null","fixation","null","","-1","-1","","","","","","","","","","","","","","","","","","","","","","","","","","","","","","","","","","","",""
"","numerosity","html-keyboard-response","266","1664072","0.0-82.0-1.0","null","[Dot display: left=300, right=252, diff=48]","null","","-1","-1","300","252","48","","","","","","","","","","","","","","","","","","","","","","","","","","","","","","","","",""
"","confidence_first","html-keyboard-response","267","1672470","0.0-82.0-2.0","8396.199999928474","Confidence judgement (first response)","","","-1","-1","","","","right","83.75","50","83.75","false","49","","","","","","","","","","","","","","","","","","","","","","","","","","",""
"","advice_choice","html-button-response","268","1674357","0.0-82.0-3.0-0.0","1885","[advice choice Y,N]","0","","-1","-1","","","","","","","","","","","","","","","","","","","","","","","","","","","","","","","","","","","",""
"","show_advice","html-keyboard-response","269","1675165","0.0-82.0-3.0-1.0-0.0","null","[advice: left]","null","","-1","-1","","","","","","","","","","","left","","","","","","","","","","","","","","","","","","","","","","","","",""
"","confidence_second","html-keyboard-response","270","1697857","0.0-82.0-6.0","22690.600000023842","Confidence judgment (second response)","","","-1","-1","","","","left","83","83","50","true","49","","","","","","","","","","","","","","","","","","","","","","","","","","",""
"","consolidated-trial-data","consolidated-trial-data","271","1697859","0.0-83.0","null","consolidated-trial-data","null","","","","","","","","","","","","","","","1","8","23","300","252","48","right","83.75","false","8396.199999928474","1","yes","left","left","83","true","true","22690.600000023842","","","","","","",""
"","attncheck","html-button-response","272","1701704","0.0-84.0","3843","attncheck","2","","","","","","","","","","","","","","","","","","","","","","","","","","","","","","","","","true","Next","","","","",""
"","fixation","html-keyboard-response","273","1702957","0.0-85.0-0.0","null","fixation","null","","-1","-1","","","","","","","","","","","","","","","","","","","","","","","","","","","","","","","","","","","",""
"","numerosity","html-keyboard-response","274","1703463","0.0-85.0-1.0","null","[Dot display: left=251, right=300, diff=49]","null","","-1","-1","251","300","49","","","","","","","","","","","","","","","","","","","","","","","","","","","","","","","","",""
"","confidence_first","html-keyboard-response","275","1709842","0.0-85.0-2.0","6377","Confidence judgement (first response)","","","-1","-1","","","","right","74.75","50","74.75","true","49","","","","","","","","","","","","","","","","","","","","","","","","","","",""
"","forced_advice_display","html-button-response","276","1711368","0.0-85.0-4.0-0.0","1525","forcedAdvice","0","","-1","-1","","","","","","","","","","","","","","","","","","","","","","","","","","","","","","","","","","","",""
"","show_advice","html-keyboard-response","277","1712170","0.0-85.0-4.0-1.0","null","[advice: left]","null","","-1","-1","","","","","","","","","","","left","","","","","","","","","","","","","","","","","","","","","","","","",""
"","confidence_second","html-keyboard-response","278","1729850","0.0-85.0-6.0","17677.700000047684","Confidence judgment (second response)","","","-1","-1","","","","left","88.25","88.25","50","false","49","","","","","","","","","","","","","","","","","","","","","","","","","","",""
"","consolidated-trial-data","consolidated-trial-data","279","1729852","0.0-86.0","null","consolidated-trial-data","null","","","","","","","","","","","","","","","1","9","24","251","300","49","right","74.75","true","6377","2","yes","left","left","88.25","false","false","17677.700000047684","","","","","","",""
"","fixation","html-keyboard-response","280","1731090","0.0-87.0-0.0","null","fixation","null","","-1","-1","","","","","","","","","","","","","","","","","","","","","","","","","","","","","","","","","","","",""
"","numerosity","html-keyboard-response","281","1731606","0.0-87.0-1.0","null","[Dot display: left=251, right=300, diff=49]","null","","-1","-1","251","300","49","","","","","","","","","","","","","","","","","","","","","","","","","","","","","","","","",""
"","confidence_first","html-keyboard-response","282","1740829","0.0-87.0-2.0","9221.700000047684","Confidence judgement (first response)","","","-1","-1","","","","left","89.5","89.5","50","false","50","","","","","","","","","","","","","","","","","","","","","","","","","","",""
"","no_advice_display","html-button-response","283","1742292","0.0-87.0-5.0-0.0","1462","noAdvice","0","","-1","-1","","","","","","","","","","","","","","","","","","","","","","","","","","","","","","","","","","","",""
"","blank_screen","html-keyboard-response","284","1743095","0.0-87.0-5.0-1.0","null","blank","null","","-1","-1","","","","","","","","","","","","","","","","","","","","","","","","","","","","","","","","","","","",""
"","confidence_second","html-keyboard-response","285","1745946","0.0-87.0-6.0","2848.7999999523163","Confidence judgment (second response)","","","-1","-1","","","","left","92.5","92.5","50","false","50","","","","","","","","","","","","","","","","","","","","","","","","","","",""
"","consolidated-trial-data","consolidated-trial-data","286","1745949","0.0-88.0","null","consolidated-trial-data","null","","","","","","","","","","","","","","","1","10","25","251","300","49","left","89.5","false","9221.700000047684","3","yes","left","left","92.5","false","false","2848.7999999523163","","","","","","",""
"","fixation","html-keyboard-response","287","1747372","0.0-89.0-0.0","null","fixation","null","","-1","-1","","","","","","","","","","","","","","","","","","","","","","","","","","","","","","","","","","","",""
"","numerosity","html-keyboard-response","288","1747886","0.0-89.0-1.0","null","[Dot display: left=300, right=250, diff=50]","null","","-1","-1","300","250","50","","","","","","","","","","","","","","","","","","","","","","","","","","","","","","","","",""
"","confidence_first","html-keyboard-response","289","1751680","0.0-89.0-2.0","3791.7000000476837","Confidence judgement (first response)","","","-1","-1","","","","left","92.5","92.5","50","true","50","","","","","","","","","","","","","","","","","","","","","","","","","","",""
"","advice_choice","html-button-response","290","1753342","0.0-89.0-3.0-0.0","1660","[advice choice Y,N]","0","","-1","-1","","","","","","","","","","","","","","","","","","","","","","","","","","","","","","","","","","","",""
"","show_advice","html-keyboard-response","291","1754144","0.0-89.0-3.0-1.0-0.0","null","[advice: left]","null","","-1","-1","","","","","","","","","","","left","","","","","","","","","","","","","","","","","","","","","","","","",""
"","confidence_second","html-keyboard-response","292","1756676","0.0-89.0-6.0","2530.8000000715256","Confidence judgment (second response)","","","-1","-1","","","","left","99","99","50","true","50","","","","","","","","","","","","","","","","","","","","","","","","","","",""
"","consolidated-trial-data","consolidated-trial-data","293","1756678","0.0-90.0","null","consolidated-trial-data","null","","","","","","","","","","","","","","","1","11","26","300","250","50","left","92.5","true","3791.7000000476837","1","yes","left","left","99","true","true","2530.8000000715256","","","","","","",""
"","fixation","html-keyboard-response","294","1757978","0.0-91.0-0.0","null","fixation","null","","-1","-1","","","","","","","","","","","","","","","","","","","","","","","","","","","","","","","","","","","",""
"","numerosity","html-keyboard-response","295","1758486","0.0-91.0-1.0","null","[Dot display: left=300, right=250, diff=50]","null","","-1","-1","300","250","50","","","","","","","","","","","","","","","","","","","","","","","","","","","","","","","","",""
"","confidence_first","html-keyboard-response","296","1762020","0.0-91.0-2.0","3532.5","Confidence judgement (first response)","","","-1","-1","","","","left","99","99","50","true","49","","","","","","","","","","","","","","","","","","","","","","","","","","",""
"","no_advice_display","html-button-response","297","1763377","0.0-91.0-5.0-0.0","1356","noAdvice","0","","-1","-1","","","","","","","","","","","","","","","","","","","","","","","","","","","","","","","","","","","",""
"","blank_screen","html-keyboard-response","298","1764178","0.0-91.0-5.0-1.0","null","blank","null","","-1","-1","","","","","","","","","","","","","","","","","","","","","","","","","","","","","","","","","","","",""
"","confidence_second","html-keyboard-response","299","1766573","0.0-91.0-6.0","2393.7999999523163","Confidence judgment (second response)","","","-1","-1","","","","left","98.75","98.75","50","true","49","","","","","","","","","","","","","","","","","","","","","","","","","","",""
"","consolidated-trial-data","consolidated-trial-data","300","1766574","0.0-92.0","null","consolidated-trial-data","null","","","","","","","","","","","","","","","1","12","27","300","250","50","left","99","true","3532.5","3","yes","left","left","98.75","true","true","2393.7999999523163","","","","","","",""
"","fixation","html-keyboard-response","301","1767819","0.0-93.0-0.0","null","fixation","null","","-1","-1","","","","","","","","","","","","","","","","","","","","","","","","","","","","","","","","","","","",""
"","numerosity","html-keyboard-response","302","1768333","0.0-93.0-1.0","null","[Dot display: left=251, right=300, diff=49]","null","","-1","-1","251","300","49","","","","","","","","","","","","","","","","","","","","","","","","","","","","","","","","",""
"","confidence_first","html-keyboard-response","303","1771309","0.0-93.0-2.0","2974.600000023842","Confidence judgement (first response)","","","-1","-1","","","","right","85","50","85","true","49","","","","","","","","","","","","","","","","","","","","","","","","","","",""
"","forced_advice_display","html-button-response","304","1772572","0.0-93.0-4.0-0.0","1263","forcedAdvice","0","","-1","-1","","","","","","","","","","","","","","","","","","","","","","","","","","","","","","","","","","","",""
"","show_advice","html-keyboard-response","305","1773374","0.0-93.0-4.0-1.0","null","[advice: right]","null","","-1","-1","","","","","","","","","","","right","","","","","","","","","","","","","","","","","","","","","","","","",""
"","confidence_second","html-keyboard-response","306","1775716","0.0-93.0-6.0","2340.2999999523163","Confidence judgment (second response)","","","-1","-1","","","","right","94.75","50","94.75","true","49","","","","","","","","","","","","","","","","","","","","","","","","","","",""
"","consolidated-trial-data","consolidated-trial-data","307","1775718","0.0-94.0","null","consolidated-trial-data","null","","","","","","","","","","","","","","","1","13","28","251","300","49","right","85","true","2974.600000023842","2","yes","right","right","94.75","true","true","2340.2999999523163","","","","","","",""
"","fixation","html-keyboard-response","308","1777214","0.0-95.0-0.0","null","fixation","null","","-1","-1","","","","","","","","","","","","","","","","","","","","","","","","","","","","","","","","","","","",""
"","numerosity","html-keyboard-response","309","1777730","0.0-95.0-1.0","null","[Dot display: left=251, right=300, diff=49]","null","","-1","-1","251","300","49","","","","","","","","","","","","","","","","","","","","","","","","","","","","","","","","",""
"","confidence_first","html-keyboard-response","310","1781456","0.0-95.0-2.0","3724.100000023842","Confidence judgement (first response)","","","-1","-1","","","","right","94.5","50","94.5","true","49","","","","","","","","","","","","","","","","","","","","","","","","","","",""
"","forced_advice_display","html-button-response","311","1782720","0.0-95.0-4.0-0.0","1262","forcedAdvice","0","","-1","-1","","","","","","","","","","","","","","","","","","","","","","","","","","","","","","","","","","","",""
"","show_advice","html-keyboard-response","312","1783523","0.0-95.0-4.0-1.0","null","[advice: right]","null","","-1","-1","","","","","","","","","","","right","","","","","","","","","","","","","","","","","","","","","","","","",""
"","confidence_second","html-keyboard-response","313","1785422","0.0-95.0-6.0","1897.5","Confidence judgment (second response)","","","-1","-1","","","","right","98","50","98","true","49","","","","","","","","","","","","","","","","","","","","","","","","","","",""
"","consolidated-trial-data","consolidated-trial-data","314","1785423","0.0-96.0","null","consolidated-trial-data","null","","","","","","","","","","","","","","","1","14","29","251","300","49","right","94.5","true","3724.100000023842","2","yes","right","right","98","true","true","1897.5","","","","","","",""
"","block_message","html-button-response","315","1793922","0.0-97.0","8498","block message","0","","","","","","","","","","","","","3","","","","","","","","","","","","","","","","","","","","","","","","","",""
"","attncheck","html-button-response","316","1796449","0.0-98.0","2526","attncheck","2","","","","","","","","","","","","","","","","","","","","","","","","","","","","","","","","","true","Next","","","","",""
"","fixation","html-keyboard-response","317","1797796","0.0-99.0-0.0","null","fixation","null","","-1","-1","","","","","","","","","","","","","","","","","","","","","","","","","","","","","","","","","","","",""
"","numerosity","html-keyboard-response","318","1798304","0.0-99.0-1.0","null","[Dot display: left=300, right=251, diff=49]","null","","-1","-1","300","251","49","","","","","","","","","","","","","","","","","","","","","","","","","","","","","","","","",""
"","confidence_first","html-keyboard-response","319","1800904","0.0-99.0-2.0","2598.2999999523163","Confidence judgement (first response)","","","-1","-1","","","","left","96","96","50","true","48","","","","","","","","","","","","","","","","","","","","","","","","","","",""
"","forced_advice_display","html-button-response","320","1802182","0.0-99.0-4.0-0.0","1276","forcedAdvice","0","","-1","-1","","","","","","","","","","","","","","","","","","","","","","","","","","","","","","","","","","","",""
"","show_advice","html-keyboard-response","321","1802983","0.0-99.0-4.0-1.0","null","[advice: left]","null","","-1","-1","","","","","","","","","","","left","","","","","","","","","","","","","","","","","","","","","","","","",""
"","confidence_second","html-keyboard-response","322","1805524","0.0-99.0-6.0","2539.7000000476837","Confidence judgment (second response)","","","-1","-1","","","","left","99","99","50","true","48","","","","","","","","","","","","","","","","","","","","","","","","","","",""
"","consolidated-trial-data","consolidated-trial-data","323","1805527","0.0-100.0","null","consolidated-trial-data","null","","","","","","","","","","","","","","","2","0","30","300","251","49","left","96","true","2598.2999999523163","2","yes","left","left","99","true","true","2539.7000000476837","","","","","","",""
"","fixation","html-keyboard-response","324","1806745","0.0-101.0-0.0","null","fixation","null","","-1","-1","","","","","","","","","","","","","","","","","","","","","","","","","","","","","","","","","","","",""
"","numerosity","html-keyboard-response","325","1807262","0.0-101.0-1.0","null","[Dot display: left=300, right=252, diff=48]","null","","-1","-1","300","252","48","","","","","","","","","","","","","","","","","","","","","","","","","","","","","","","","",""
"","confidence_first","html-keyboard-response","326","1812306","0.0-101.0-2.0","5041.799999952316","Confidence judgement (first response)","","","-1","-1","","","","left","95.5","95.5","50","true","48","","","","","","","","","","","","","","","","","","","","","","","","","","",""
"","no_advice_display","html-button-response","327","1813785","0.0-101.0-5.0-0.0","1478","noAdvice","0","","-1","-1","","","","","","","","","","","","","","","","","","","","","","","","","","","","","","","","","","","",""
"","blank_screen","html-keyboard-response","328","1814587","0.0-101.0-5.0-1.0","null","blank","null","","-1","-1","","","","","","","","","","","","","","","","","","","","","","","","","","","","","","","","","","","",""
"","confidence_second","html-keyboard-response","329","1816439","0.0-101.0-6.0","1850.8000000715256","Confidence judgment (second response)","","","-1","-1","","","","left","96.25","96.25","50","true","48","","","","","","","","","","","","","","","","","","","","","","","","","","",""
"","consolidated-trial-data","consolidated-trial-data","330","1816442","0.0-102.0","null","consolidated-trial-data","null","","","","","","","","","","","","","","","2","1","31","300","252","48","left","95.5","true","5041.799999952316","3","yes","left","left","96.25","true","true","1850.8000000715256","","","","","","",""
"","fixation","html-keyboard-response","331","1817944","0.0-103.0-0.0","null","fixation","null","","-1","-1","","","","","","","","","","","","","","","","","","","","","","","","","","","","","","","","","","","",""
"","numerosity","html-keyboard-response","332","1818458","0.0-103.0-1.0","null","[Dot display: left=252, right=300, diff=48]","null","","-1","-1","252","300","48","","","","","","","","","","","","","","","","","","","","","","","","","","","","","","","","",""
"","confidence_first","html-keyboard-response","333","1823173","0.0-103.0-2.0","4712.699999928474","Confidence judgement (first response)","","","-1","-1","","","","right","90.75","50","90.75","true","48","","","","","","","","","","","","","","","","","","","","","","","","","","",""
"","no_advice_display","html-button-response","334","1824515","0.0-103.0-5.0-0.0","1341","noAdvice","0","","-1","-1","","","","","","","","","","","","","","","","","","","","","","","","","","","","","","","","","","","",""
"","blank_screen","html-keyboard-response","335","1825323","0.0-103.0-5.0-1.0","null","blank","null","","-1","-1","","","","","","","","","","","","","","","","","","","","","","","","","","","","","","","","","","","",""
"","confidence_second","html-keyboard-response","336","1826978","0.0-103.0-6.0","1653.8000000715256","Confidence judgment (second response)","","","-1","-1","","","","right","93.75","50","93.75","true","48","","","","","","","","","","","","","","","","","","","","","","","","","","",""
"","consolidated-trial-data","consolidated-trial-data","337","1826980","0.0-104.0","null","consolidated-trial-data","null","","","","","","","","","","","","","","","2","2","32","252","300","48","right","90.75","true","4712.699999928474","3","yes","left","right","93.75","false","true","1653.8000000715256","","","","","","",""
"","fixation","html-keyboard-response","338","1828394","0.0-105.0-0.0","null","fixation","null","","-1","-1","","","","","","","","","","","","","","","","","","","","","","","","","","","","","","","","","","","",""
"","numerosity","html-keyboard-response","339","1828908","0.0-105.0-1.0","null","[Dot display: left=300, right=252, diff=48]","null","","-1","-1","300","252","48","","","","","","","","","","","","","","","","","","","","","","","","","","","","","","","","",""
"","confidence_first","html-keyboard-response","340","1831896","0.0-105.0-2.0","2985.100000023842","Confidence judgement (first response)","","","-1","-1","","","","left","96.75","96.75","50","true","48","","","","","","","","","","","","","","","","","","","","","","","","","","",""
"","forced_advice_display","html-button-response","341","1833071","0.0-105.0-4.0-0.0","1174","forcedAdvice","0","","-1","-1","","","","","","","","","","","","","","","","","","","","","","","","","","","","","","","","","","","",""
"","show_advice","html-keyboard-response","342","1833884","0.0-105.0-4.0-1.0","null","[advice: left]","null","","-1","-1","","","","","","","","","","","left","","","","","","","","","","","","","","","","","","","","","","","","",""
"","confidence_second","html-keyboard-response","343","1836693","0.0-105.0-6.0","2807.9000000953674","Confidence judgment (second response)","","","-1","-1","","","","left","100","100","50","true","48","","","","","","","","","","","","","","","","","","","","","","","","","","",""
"","consolidated-trial-data","consolidated-trial-data","344","1836696","0.0-106.0","null","consolidated-trial-data","null","","","","","","","","","","","","","","","2","3","33","300","252","48","left","96.75","true","2985.100000023842","2","yes","left","left","100","true","true","2807.9000000953674","","","","","","",""
"","fixation","html-keyboard-response","345","1838050","0.0-107.0-0.0","null","fixation","null","","-1","-1","","","","","","","","","","","","","","","","","","","","","","","","","","","","","","","","","","","",""
"","numerosity","html-keyboard-response","346","1838564","0.0-107.0-1.0","null","[Dot display: left=300, right=252, diff=48]","null","","-1","-1","300","252","48","","","","","","","","","","","","","","","","","","","","","","","","","","","","","","","","",""
"","confidence_first","html-keyboard-response","347","1841260","0.0-107.0-2.0","2693.7000000476837","Confidence judgement (first response)","","","-1","-1","","","","left","98","98","50","true","47","","","","","","","","","","","","","","","","","","","","","","","","","","",""
"","no_advice_display","html-button-response","348","1842858","0.0-107.0-5.0-0.0","1596","noAdvice","0","","-1","-1","","","","","","","","","","","","","","","","","","","","","","","","","","","","","","","","","","","",""
"","blank_screen","html-keyboard-response","349","1843669","0.0-107.0-5.0-1.0","null","blank","null","","-1","-1","","","","","","","","","","","","","","","","","","","","","","","","","","","","","","","","","","","",""
"","confidence_second","html-keyboard-response","350","1845849","0.0-107.0-6.0","2178.399999976158","Confidence judgment (second response)","","","-1","-1","","","","left","99","99","50","true","47","","","","","","","","","","","","","","","","","","","","","","","","","","",""
"","consolidated-trial-data","consolidated-trial-data","351","1845851","0.0-108.0","null","consolidated-trial-data","null","","","","","","","","","","","","","","","2","4","34","300","252","48","left","98","true","2693.7000000476837","3","yes","left","left","99","true","true","2178.399999976158","","","","","","",""
"","fixation","html-keyboard-response","352","1847345","0.0-109.0-0.0","null","fixation","null","","-1","-1","","","","","","","","","","","","","","","","","","","","","","","","","","","","","","","","","","","",""
"","numerosity","html-keyboard-response","353","1847860","0.0-109.0-1.0","null","[Dot display: left=253, right=300, diff=47]","null","","-1","-1","253","300","47","","","","","","","","","","","","","","","","","","","","","","","","","","","","","","","","",""
"","confidence_first","html-keyboard-response","354","1851095","0.0-109.0-2.0","3232","Confidence judgement (first response)","","","-1","-1","","","","right","97","50","97","true","47","","","","","","","","","","","","","","","","","","","","","","","","","","",""
"","advice_choice","html-button-response","355","1852367","0.0-109.0-3.0-0.0","1271","[advice choice Y,N]","0","","-1","-1","","","","","","","","","","","","","","","","","","","","","","","","","","","","","","","","","","","",""
"","show_advice","html-keyboard-response","356","1853185","0.0-109.0-3.0-1.0-0.0","null","[advice: right]","null","","-1","-1","","","","","","","","","","","right","","","","","","","","","","","","","","","","","","","","","","","","",""
"","confidence_second","html-keyboard-response","357","1855435","0.0-109.0-6.0","2248.5","Confidence judgment (second response)","","","-1","-1","","","","right","97.5","50","97.5","true","47","","","","","","","","","","","","","","","","","","","","","","","","","","",""
"","consolidated-trial-data","consolidated-trial-data","358","1855437","0.0-110.0","null","consolidated-trial-data","null","","","","","","","","","","","","","","","2","5","35","253","300","47","right","97","true","3232","1","yes","right","right","97.5","true","true","2248.5","","","","","","",""
"","fixation","html-keyboard-response","359","1856792","0.0-111.0-0.0","null","fixation","null","","-1","-1","","","","","","","","","","","","","","","","","","","","","","","","","","","","","","","","","","","",""
"","numerosity","html-keyboard-response","360","1857304","0.0-111.0-1.0","null","[Dot display: left=300, right=253, diff=47]","null","","-1","-1","300","253","47","","","","","","","","","","","","","","","","","","","","","","","","","","","","","","","","",""
"","confidence_first","html-keyboard-response","361","1859746","0.0-111.0-2.0","2440.5","Confidence judgement (first response)","","","-1","-1","","","","left","98.5","98.5","50","true","47","","","","","","","","","","","","","","","","","","","","","","","","","","",""
"","advice_choice","html-button-response","362","1860977","0.0-111.0-3.0-0.0","1229","[advice choice Y,N]","0","","-1","-1","","","","","","","","","","","","","","","","","","","","","","","","","","","","","","","","","","","",""
"","show_advice","html-keyboard-response","363","1861779","0.0-111.0-3.0-1.0-0.0","null","[advice: left]","null","","-1","-1","","","","","","","","","","","left","","","","","","","","","","","","","","","","","","","","","","","","",""
"","confidence_second","html-keyboard-response","364","1865473","0.0-111.0-6.0","3692","Confidence judgment (second response)","","","-1","-1","","","","left","98.75","98.75","50","true","47","","","","","","","","","","","","","","","","","","","","","","","","","","",""
"","consolidated-trial-data","consolidated-trial-data","365","1865475","0.0-112.0","null","consolidated-trial-data","null","","","","","","","","","","","","","","","2","6","36","300","253","47","left","98.5","true","2440.5","1","yes","left","left","98.75","true","true","3692","","","","","","",""
"","fixation","html-keyboard-response","366","1866863","0.0-113.0-0.0","null","fixation","null","","-1","-1","","","","","","","","","","","","","","","","","","","","","","","","","","","","","","","","","","","",""
"","numerosity","html-keyboard-response","367","1867373","0.0-113.0-1.0","null","[Dot display: left=253, right=300, diff=47]","null","","-1","-1","253","300","47","","","","","","","","","","","","","","","","","","","","","","","","","","","","","","","","",""
"","confidence_first","html-keyboard-response","368","1869389","0.0-113.0-2.0","2014.2000000476837","Confidence judgement (first response)","","","-1","-1","","","","right","92","50","92","true","47","","","","","","","","","","","","","","","","","","","","","","","","","","",""
"","advice_choice","html-button-response","369","1870892","0.0-113.0-3.0-0.0","1502","[advice choice Y,N]","0","","-1","-1","","","","","","","","","","","","","","","","","","","","","","","","","","","","","","","","","","","",""
"","show_advice","html-keyboard-response","370","1871700","0.0-113.0-3.0-1.0-0.0","null","[advice: left]","null","","-1","-1","","","","","","","","","","","left","","","","","","","","","","","","","","","","","","","","","","","","",""
"","confidence_second","html-keyboard-response","371","1875116","0.0-113.0-6.0","3413.4000000953674","Confidence judgment (second response)","","","-1","-1","","","","right","95","50","95","true","47","","","","","","","","","","","","","","","","","","","","","","","","","","",""
"","consolidated-trial-data","consolidated-trial-data","372","1875118","0.0-114.0","null","consolidated-trial-data","null","","","","","","","","","","","","","","","2","7","37","253","300","47","right","92","true","2014.2000000476837","1","yes","left","right","95","false","true","3413.4000000953674","","","","","","",""
"","fixation","html-keyboard-response","373","1876518","0.0-115.0-0.0","null","fixation","null","","-1","-1","","","","","","","","","","","","","","","","","","","","","","","","","","","","","","","","","","","",""
"","numerosity","html-keyboard-response","374","1877029","0.0-115.0-1.0","null","[Dot display: left=253, right=300, diff=47]","null","","-1","-1","253","300","47","","","","","","","","","","","","","","","","","","","","","","","","","","","","","","","","",""
"","confidence_first","html-keyboard-response","375","1879136","0.0-115.0-2.0","2104.6999999284744","Confidence judgement (first response)","","","-1","-1","","","","right","90.75","50","90.75","true","46","","","","","","","","","","","","","","","","","","","","","","","","","","",""
"","advice_choice","html-button-response","376","1880192","0.0-115.0-3.0-0.0","1054","[advice choice Y,N]","0","","-1","-1","","","","","","","","","","","","","","","","","","","","","","","","","","","","","","","","","","","",""
"","show_advice","html-keyboard-response","377","1881000","0.0-115.0-3.0-1.0-0.0","null","[advice: right]","null","","-1","-1","","","","","","","","","","","right","","","","","","","","","","","","","","","","","","","","","","","","",""
"","confidence_second","html-keyboard-response","378","1883038","0.0-115.0-6.0","2036.3000000715256","Confidence judgment (second response)","","","-1","-1","","","","right","98.25","50","98.25","true","46","","","","","","","","","","","","","","","","","","","","","","","","","","",""
"","consolidated-trial-data","consolidated-trial-data","379","1883041","0.0-116.0","null","consolidated-trial-data","null","","","","","","","","","","","","","","","2","8","38","253","300","47","right","90.75","true","2104.6999999284744","1","yes","right","right","98.25","true","true","2036.3000000715256","","","","","","",""
"","attncheck","html-button-response","380","1885189","0.0-117.0","2146","attncheck","2","","","","","","","","","","","","","","","","","","","","","","","","","","","","","","","","","true","Next","","","","",""
"","fixation","html-keyboard-response","381","1886469","0.0-118.0-0.0","null","fixation","null","","-1","-1","","","","","","","","","","","","","","","","","","","","","","","","","","","","","","","","","","","",""
"","numerosity","html-keyboard-response","382","1886978","0.0-118.0-1.0","null","[Dot display: left=254, right=300, diff=46]","null","","-1","-1","254","300","46","","","","","","","","","","","","","","","","","","","","","","","","","","","","","","","","",""
"","confidence_first","html-keyboard-response","383","1890906","0.0-118.0-2.0","3926.3000000715256","Confidence judgement (first response)","","","-1","-1","","","","right","75","50","75","true","46","","","","","","","","","","","","","","","","","","","","","","","","","","",""
"","forced_advice_display","html-button-response","384","1892433","0.0-118.0-4.0-0.0","1526","forcedAdvice","0","","-1","-1","","","","","","","","","","","","","","","","","","","","","","","","","","","","","","","","","","","",""
"","show_advice","html-keyboard-response","385","1893234","0.0-118.0-4.0-1.0","null","[advice: right]","null","","-1","-1","","","","","","","","","","","right","","","","","","","","","","","","","","","","","","","","","","","","",""
