"success","task","trial_type","trial_index","time_elapsed","internal_node_id","rt","stimulus","response","pixels_per_unit","itrial","iblock","leftDots","rightDots","difference","selected_side","confidence_value","left_confidence","right_confidence","correct","threshold","block_num","block","trial","trialid","dotsLeft","dotsRight","dotsDiff","selectedSide_first","confidence_first","correct_1","rt_1","adviceCond","adviceChoice","adviceDir","selectedSide_second","confidence_second","adviceCorrect","correct_2","rt_2","advice_direction","attention_check_correct","target_button","top_prompt","bottom_prompt","top_response","bottom_response","question_order"
"true","fullscreen_enter","fullscreen","0","7798","0.0-0.0","","","","","","","","","","","","","","","","","","","","","","","","","","","","","","","","","","","","","","","","","",""
"","welcome","html-button-response","1","10750","0.0-1.0","2949","welcome_msg","0","","","","","","","","","","","","","","","","","","","","","","","","","","","","","","","","","","","","","","",""
"","PISdoc","html-button-response","2","18482","0.0-2.0","7727","PISdoc","0","","","","","","","","","","","","","","","","","","","","","","","","","","","","","","","","","","","","","","",""
"","demographics","survey-html-form","3","24505","0.0-3.0","6021","","{""age"":""36"",""gender"":""female"",""id"":""6610""}","","","","","","","","","","","","","","","","","","","","","","","","","","","","","","","","","","","","","","",""
"","dass10","survey-likert","4","79675","0.0-4.0","55166","","{""felt_panic"":1,""no_initiative"":2,""felt_blue"":2,""was_intolerant"":2,""nothing_forward"":2,""felt_scared"":1,""over_react"":1,""felt_worry"":2,""no_relax"":0,""no_positive"":2,""felt_annoyed"":0,""EOL_thoughts"":1}","","","","","","","","","","","","","","","","","","","","","","","","","","","","","","","","","","","","","","",""
"","pracInstructions","html-button-response","5","88528","0.0-5.0-0.0","8846","pracInstruc","0","","","","","","","","","","","","","","","","","","","","","","","","","","","","","","","","","","","","","","",""
"","pracInstructions","html-button-response","6","101477","0.0-5.0-0.1","12946","pracInstruc","0","","","","","","","","","","","","","","","","","","","","","","","","","","","","","","","","","","","","","","",""
"","pracInstructions","html-button-response","7","108223","0.0-5.0-0.2","6744","pracInstruc","0","","","","","","","","","","","","","","","","","","","","","","","","","","","","","","","","","","","","","","",""
"","pracInstructions","html-button-response","8","113240","0.0-5.0-0.3","5014","pracInstruc","0","","","","","","","","","","","","","","","","","","","","","","","","","","","","","","","","","","","","","","",""
"","pracInstructions","html-button-response","9","117065","0.0-5.0-0.4","3824","pracInstruc","0","","","","","","","","","","","","","","","","","","","","","","","","","","","","","","","","","","","","","","",""
"","pracInstructions","html-button-response","10","119173","0.0-5.0-0.5","2099","pracInstruc","0","","","","","","","","","","","","","","","","","","","","","","","","","","","","","","","","","","","","","","",""
"","pracInstructions","html-button-response","11","123574","0.0-5.0-0.6","4398","pracInstruc","0","","","","","","","","","","","","","","","","","","","","","","","","","","","","","","","","","","","","","","",""
"","","html-button-response","12","165545","0.0-6.0","41966","<div style= ""font-size: 24px; color: white"">
                        
                            <p>First, Please hold a credit card up to your screen.</p>
                            <p>Adjust this box until it matches the size of the credit card.</p>
                            <div id=""calibration-box"" style=""
                                width: 506px;
                                height: 319px;
                                border: 2px solid white;
                                background-color: rgba(255,255,255,0.2);
                                margin: 20px auto;
                                resize: both;
                                overflow: hidden;
                            ""></div>
                        </div>
                    ","0","151","","","","","","","","","","","","","","","","","","","","","","","","","","","","","","","","","","","","","",""
"","fixation","html-keyboard-response","13","166900","0.0-7.0-0.0","null","fixation","null","","-1","-1","","","","","","","","","","","","","","","","","","","","","","","","","","","","","","","","","","","",""
"","numerosity","html-keyboard-response","14","167419","0.0-7.0-1.0","null","[Dot display: left=300, right=250, diff=50]","null","","-1","-1","300","250","50","","","","","","","","","","","","","","","","","","","","","","","","","","","","","","","","",""
"","confidence_first","html-keyboard-response","15","183428","0.0-7.0-2.0","16000","Confidence judgement (first response)","","","-1","-1","","","","left","80.5","80.5","50","true","19","","","","","","","","","","","","","","","","","","","","","","","","","","",""
"","fixation","html-keyboard-response","16","184883","0.0-8.0-0.0","null","fixation","null","","-1","-1","","","","","","","","","","","","","","","","","","","","","","","","","","","","","","","","","","","",""
"","numerosity","html-keyboard-response","17","185400","0.0-8.0-1.0","null","[Dot display: left=250, right=300, diff=50]","null","","-1","-1","250","300","50","","","","","","","","","","","","","","","","","","","","","","","","","","","","","","","","",""
"","confidence_first","html-keyboard-response","18","198974","0.0-8.0-2.0","13570","Confidence judgement (first response)","","","-1","-1","","","","right","61.5","50","61.5","true","19","","","","","","","","","","","","","","","","","","","","","","","","","","",""
"","fixation","html-keyboard-response","19","200416","0.0-9.0-0.0","null","fixation","null","","-1","-1","","","","","","","","","","","","","","","","","","","","","","","","","","","","","","","","","","","",""
"","numerosity","html-keyboard-response","20","200932","0.0-9.0-1.0","null","[Dot display: left=300, right=250, diff=50]","null","","-1","-1","300","250","50","","","","","","","","","","","","","","","","","","","","","","","","","","","","","","","","",""
"","confidence_first","html-keyboard-response","21","204515","0.0-9.0-2.0","3579","Confidence judgement (first response)","","","-1","-1","","","","left","84.25","84.25","50","true","19","","","","","","","","","","","","","","","","","","","","","","","","","","",""
"","fixation","html-keyboard-response","22","205925","0.0-10.0-0.0","null","fixation","null","","-1","-1","","","","","","","","","","","","","","","","","","","","","","","","","","","","","","","","","","","",""
"","numerosity","html-keyboard-response","23","206444","0.0-10.0-1.0","null","[Dot display: left=281, right=300, diff=19]","null","","-1","-1","281","300","19","","","","","","","","","","","","","","","","","","","","","","","","","","","","","","","","",""
"","confidence_first","html-keyboard-response","24","208665","0.0-10.0-2.0","2217.000000000029","Confidence judgement (first response)","","","-1","-1","","","","right","75","50","75","true","16","","","","","","","","","","","","","","","","","","","","","","","","","","",""
"","fixation","html-keyboard-response","25","209899","0.0-11.0-0.0","null","fixation","null","","-1","-1","","","","","","","","","","","","","","","","","","","","","","","","","","","","","","","","","","","",""
"","numerosity","html-keyboard-response","26","210417","0.0-11.0-1.0","null","[Dot display: left=284, right=300, diff=16]","null","","-1","-1","284","300","16","","","","","","","","","","","","","","","","","","","","","","","","","","","","","","","","",""
"","confidence_first","html-keyboard-response","27","212381","0.0-11.0-2.0","1960.999999999971","Confidence judgement (first response)","","","-1","-1","","","","right","82.5","50","82.5","true","14","","","","","","","","","","","","","","","","","","","","","","","","","","",""
"","fixation","html-keyboard-response","28","213706","0.0-12.0-0.0","null","fixation","null","","-1","-1","","","","","","","","","","","","","","","","","","","","","","","","","","","","","","","","","","","",""
"","numerosity","html-keyboard-response","29","214222","0.0-12.0-1.0","null","[Dot display: left=286, right=300, diff=14]","null","","-1","-1","286","300","14","","","","","","","","","","","","","","","","","","","","","","","","","","","","","","","","",""
"","confidence_first","html-keyboard-response","30","216249","0.0-12.0-2.0","2023.000000000029","Confidence judgement (first response)","","","-1","-1","","","","left","83.25","83.25","50","false","24","","","","","","","","","","","","","","","","","","","","","","","","","","",""
"","fixation","html-keyboard-response","31","217599","0.0-13.0-0.0","null","fixation","null","","-1","-1","","","","","","","","","","","","","","","","","","","","","","","","","","","","","","","","","","","",""
"","numerosity","html-keyboard-response","32","218116","0.0-13.0-1.0","null","[Dot display: left=300, right=276, diff=24]","null","","-1","-1","300","276","24","","","","","","","","","","","","","","","","","","","","","","","","","","","","","","","","",""
"","confidence_first","html-keyboard-response","33","223149","0.0-13.0-2.0","5029","Confidence judgement (first response)","","","-1","-1","","","","right","60","50","60","false","32","","","","","","","","","","","","","","","","","","","","","","","","","","",""
"","fixation","html-keyboard-response","34","224412","0.0-14.0-0.0","null","fixation","null","","-1","-1","","","","","","","","","","","","","","","","","","","","","","","","","","","","","","","","","","","",""
"","numerosity","html-keyboard-response","35","224926","0.0-14.0-1.0","null","[Dot display: left=300, right=268, diff=32]","null","","-1","-1","300","268","32","","","","","","","","","","","","","","","","","","","","","","","","","","","","","","","","",""
"","confidence_first","html-keyboard-response","36","227783","0.0-14.0-2.0","2852","Confidence judgement (first response)","","","-1","-1","","","","left","84.75","84.75","50","true","31","","","","","","","","","","","","","","","","","","","","","","","","","","",""
"","fixation","html-keyboard-response","37","229207","0.0-15.0-0.0","null","fixation","null","","-1","-1","","","","","","","","","","","","","","","","","","","","","","","","","","","","","","","","","","","",""
"","numerosity","html-keyboard-response","38","229724","0.0-15.0-1.0","null","[Dot display: left=300, right=269, diff=31]","null","","-1","-1","300","269","31","","","","","","","","","","","","","","","","","","","","","","","","","","","","","","","","",""
"","confidence_first","html-keyboard-response","39","233266","0.0-15.0-2.0","3538","Confidence judgement (first response)","","","-1","-1","","","","right","84.5","50","84.5","false","37","","","","","","","","","","","","","","","","","","","","","","","","","","",""
"","fixation","html-keyboard-response","40","234743","0.0-16.0-0.0","null","fixation","null","","-1","-1","","","","","","","","","","","","","","","","","","","","","","","","","","","","","","","","","","","",""
"","numerosity","html-keyboard-response","41","235261","0.0-16.0-1.0","null","[Dot display: left=300, right=263, diff=37]","null","","-1","-1","300","263","37","","","","","","","","","","","","","","","","","","","","","","","","","","","","","","","","",""
"","confidence_first","html-keyboard-response","42","237083","0.0-16.0-2.0","1818","Confidence judgement (first response)","","","-1","-1","","","","left","77.75","77.75","50","true","36","","","","","","","","","","","","","","","","","","","","","","","","","","",""
"","fixation","html-keyboard-response","43","238519","0.0-17.0-0.0","null","fixation","null","","-1","-1","","","","","","","","","","","","","","","","","","","","","","","","","","","","","","","","","","","",""
"","numerosity","html-keyboard-response","44","239037","0.0-17.0-1.0","null","[Dot display: left=264, right=300, diff=36]","null","","-1","-1","264","300","36","","","","","","","","","","","","","","","","","","","","","","","","","","","","","","","","",""
"","confidence_first","html-keyboard-response","45","241066","0.0-17.0-2.0","2025","Confidence judgement (first response)","","","-1","-1","","","","right","85.5","50","85.5","true","35","","","","","","","","","","","","","","","","","","","","","","","","","","",""
"","fixation","html-keyboard-response","46","242409","0.0-18.0-0.0","null","fixation","null","","-1","-1","","","","","","","","","","","","","","","","","","","","","","","","","","","","","","","","","","","",""
"","numerosity","html-keyboard-response","47","242927","0.0-18.0-1.0","null","[Dot display: left=265, right=300, diff=35]","null","","-1","-1","265","300","35","","","","","","","","","","","","","","","","","","","","","","","","","","","","","","","","",""
"","confidence_first","html-keyboard-response","48","244383","0.0-18.0-2.0","1453","Confidence judgement (first response)","","","-1","-1","","","","right","81.75","50","81.75","true","34","","","","","","","","","","","","","","","","","","","","","","","","","","",""
"","fixation","html-keyboard-response","49","245834","0.0-19.0-0.0","null","fixation","null","","-1","-1","","","","","","","","","","","","","","","","","","","","","","","","","","","","","","","","","","","",""
"","numerosity","html-keyboard-response","50","246352","0.0-19.0-1.0","null","[Dot display: left=266, right=300, diff=34]","null","","-1","-1","266","300","34","","","","","","","","","","","","","","","","","","","","","","","","","","","","","","","","",""
"","confidence_first","html-keyboard-response","51","248082","0.0-19.0-2.0","1726.999999999971","Confidence judgement (first response)","","","-1","-1","","","","right","83.25","50","83.25","true","33","","","","","","","","","","","","","","","","","","","","","","","","","","",""
"","fixation","html-keyboard-response","52","249322","0.0-20.0-0.0","null","fixation","null","","-1","-1","","","","","","","","","","","","","","","","","","","","","","","","","","","","","","","","","","","",""
"","numerosity","html-keyboard-response","53","249841","0.0-20.0-1.0","null","[Dot display: left=267, right=300, diff=33]","null","","-1","-1","267","300","33","","","","","","","","","","","","","","","","","","","","","","","","","","","","","","","","",""
"","confidence_first","html-keyboard-response","54","252965","0.0-20.0-2.0","3121.000000000029","Confidence judgement (first response)","","","-1","-1","","","","right","98.5","50","98.5","true","32","","","","","","","","","","","","","","","","","","","","","","","","","","",""
"","fixation","html-keyboard-response","55","254267","0.0-21.0-0.0","null","fixation","null","","-1","-1","","","","","","","","","","","","","","","","","","","","","","","","","","","","","","","","","","","",""
"","numerosity","html-keyboard-response","56","254785","0.0-21.0-1.0","null","[Dot display: left=268, right=300, diff=32]","null","","-1","-1","268","300","32","","","","","","","","","","","","","","","","","","","","","","","","","","","","","","","","",""
"","confidence_first","html-keyboard-response","57","258117","0.0-21.0-2.0","3328.000000000029","Confidence judgement (first response)","","","-1","-1","","","","right","56.75","50","56.75","true","31","","","","","","","","","","","","","","","","","","","","","","","","","","",""
"","fixation","html-keyboard-response","58","259549","0.0-22.0-0.0","null","fixation","null","","-1","-1","","","","","","","","","","","","","","","","","","","","","","","","","","","","","","","","","","","",""
"","numerosity","html-keyboard-response","59","260066","0.0-22.0-1.0","null","[Dot display: left=300, right=269, diff=31]","null","","-1","-1","300","269","31","","","","","","","","","","","","","","","","","","","","","","","","","","","","","","","","",""
"","confidence_first","html-keyboard-response","60","261717","0.0-22.0-2.0","1647","Confidence judgement (first response)","","","-1","-1","","","","left","87.25","87.25","50","true","30","","","","","","","","","","","","","","","","","","","","","","","","","","",""
"","fixation","html-keyboard-response","61","263159","0.0-23.0-0.0","null","fixation","null","","-1","-1","","","","","","","","","","","","","","","","","","","","","","","","","","","","","","","","","","","",""
"","numerosity","html-keyboard-response","62","263678","0.0-23.0-1.0","null","[Dot display: left=270, right=300, diff=30]","null","","-1","-1","270","300","30","","","","","","","","","","","","","","","","","","","","","","","","","","","","","","","","",""
"","confidence_first","html-keyboard-response","63","265201","0.0-23.0-2.0","1519","Confidence judgement (first response)","","","-1","-1","","","","right","79","50","79","true","30","","","","","","","","","","","","","","","","","","","","","","","","","","",""
"","fixation","html-keyboard-response","64","266458","0.0-24.0-0.0","null","fixation","null","","-1","-1","","","","","","","","","","","","","","","","","","","","","","","","","","","","","","","","","","","",""
"","numerosity","html-keyboard-response","65","266976","0.0-24.0-1.0","null","[Dot display: left=270, right=300, diff=30]","null","","-1","-1","270","300","30","","","","","","","","","","","","","","","","","","","","","","","","","","","","","","","","",""
"","confidence_first","html-keyboard-response","66","268351","0.0-24.0-2.0","1371","Confidence judgement (first response)","","","-1","-1","","","","right","98.25","50","98.25","true","29","","","","","","","","","","","","","","","","","","","","","","","","","","",""
"","fixation","html-keyboard-response","67","269596","0.0-25.0-0.0","null","fixation","null","","-1","-1","","","","","","","","","","","","","","","","","","","","","","","","","","","","","","","","","","","",""
"","numerosity","html-keyboard-response","68","270122","0.0-25.0-1.0","null","[Dot display: left=300, right=271, diff=29]","null","","-1","-1","300","271","29","","","","","","","","","","","","","","","","","","","","","","","","","","","","","","","","",""
"","confidence_first","html-keyboard-response","69","272018","0.0-25.0-2.0","1891","Confidence judgement (first response)","","","-1","-1","","","","right","58.5","50","58.5","false","32","","","","","","","","","","","","","","","","","","","","","","","","","","",""
"","fixation","html-keyboard-response","70","273419","0.0-26.0-0.0","null","fixation","null","","-1","-1","","","","","","","","","","","","","","","","","","","","","","","","","","","","","","","","","","","",""
"","numerosity","html-keyboard-response","71","273936","0.0-26.0-1.0","null","[Dot display: left=300, right=268, diff=32]","null","","-1","-1","300","268","32","","","","","","","","","","","","","","","","","","","","","","","","","","","","","","","","",""
"","confidence_first","html-keyboard-response","72","275484","0.0-26.0-2.0","1543.9999999999418","Confidence judgement (first response)","","","-1","-1","","","","right","83.75","50","83.75","false","35","","","","","","","","","","","","","","","","","","","","","","","","","","",""
"","fixation","html-keyboard-response","73","276960","0.0-27.0-0.0","null","fixation","null","","-1","-1","","","","","","","","","","","","","","","","","","","","","","","","","","","","","","","","","","","",""
"","numerosity","html-keyboard-response","74","277478","0.0-27.0-1.0","null","[Dot display: left=265, right=300, diff=35]","null","","-1","-1","265","300","35","","","","","","","","","","","","","","","","","","","","","","","","","","","","","","","","",""
"","confidence_first","html-keyboard-response","75","278784","0.0-27.0-2.0","1303","Confidence judgement (first response)","","","-1","-1","","","","right","89","50","89","true","34","","","","","","","","","","","","","","","","","","","","","","","","","","",""
"","fixation","html-keyboard-response","76","280228","0.0-28.0-0.0","null","fixation","null","","-1","-1","","","","","","","","","","","","","","","","","","","","","","","","","","","","","","","","","","","",""
"","numerosity","html-keyboard-response","77","280746","0.0-28.0-1.0","null","[Dot display: left=266, right=300, diff=34]","null","","-1","-1","266","300","34","","","","","","","","","","","","","","","","","","","","","","","","","","","","","","","","",""
"","confidence_first","html-keyboard-response","78","282887","0.0-28.0-2.0","2137","Confidence judgement (first response)","","","-1","-1","","","","left","85","85","50","false","37","","","","","","","","","","","","","","","","","","","","","","","","","","",""
"","fixation","html-keyboard-response","79","284105","0.0-29.0-0.0","null","fixation","null","","-1","-1","","","","","","","","","","","","","","","","","","","","","","","","","","","","","","","","","","","",""
"","numerosity","html-keyboard-response","80","284620","0.0-29.0-1.0","null","[Dot display: left=263, right=300, diff=37]","null","","-1","-1","263","300","37","","","","","","","","","","","","","","","","","","","","","","","","","","","","","","","","",""
"","confidence_first","html-keyboard-response","81","287639","0.0-29.0-2.0","3015","Confidence judgement (first response)","","","-1","-1","","","","right","63","50","63","true","36","","","","","","","","","","","","","","","","","","","","","","","","","","",""
"","fixation","html-keyboard-response","82","288881","0.0-30.0-0.0","null","fixation","null","","-1","-1","","","","","","","","","","","","","","","","","","","","","","","","","","","","","","","","","","","",""
"","numerosity","html-keyboard-response","83","289398","0.0-30.0-1.0","null","[Dot display: left=300, right=264, diff=36]","null","","-1","-1","300","264","36","","","","","","","","","","","","","","","","","","","","","","","","","","","","","","","","",""
"","confidence_first","html-keyboard-response","84","291038","0.0-30.0-2.0","1637","Confidence judgement (first response)","","","-1","-1","","","","left","90","90","50","true","35","","","","","","","","","","","","","","","","","","","","","","","","","","",""
"","fixation","html-keyboard-response","85","292354","0.0-31.0-0.0","null","fixation","null","","-1","-1","","","","","","","","","","","","","","","","","","","","","","","","","","","","","","","","","","","",""
"","numerosity","html-keyboard-response","86","292873","0.0-31.0-1.0","null","[Dot display: left=300, right=265, diff=35]","null","","-1","-1","300","265","35","","","","","","","","","","","","","","","","","","","","","","","","","","","","","","","","",""
"","confidence_first","html-keyboard-response","87","294623","0.0-31.0-2.0","1745","Confidence judgement (first response)","","","-1","-1","","","","left","88.75","88.75","50","true","35","","","","","","","","","","","","","","","","","","","","","","","","","","",""
"","expInstructions","html-button-response","88","301056","0.0-32.0-0.0","6429","expInstruc","0","","","","","","","","","","","","","","","","","","","","","","","","","","","","","","","","","","","","","","",""
"","expInstructions","html-button-response","89","308044","0.0-32.0-0.1","6984","expInstruc","0","","","","","","","","","","","","","","","","","","","","","","","","","","","","","","","","","","","","","","",""
"","expInstructions","html-button-response","90","313994","0.0-32.0-0.2","5947","expInstruc","0","","","","","","","","","","","","","","","","","","","","","","","","","","","","","","","","","","","","","","",""
"","expInstructions","html-button-response","91","319127","0.0-32.0-0.3","5131","expInstruc","0","","","","","","","","","","","","","","","","","","","","","","","","","","","","","","","","","","","","","","",""
"","expInstructions","html-button-response","92","323602","0.0-32.0-0.4","4472","expInstruc","0","","","","","","","","","","","","","","","","","","","","","","","","","","","","","","","","","","","","","","",""
"","expInstructions","html-button-response","93","327878","0.0-32.0-0.5","4273","expInstruc","0","","","","","","","","","","","","","","","","","","","","","","","","","","","","","","","","","","","","","","",""
"","expInstructions","html-button-response","94","333378","0.0-32.0-0.6","5498","expInstruc","0","","","","","","","","","","","","","","","","","","","","","","","","","","","","","","","","","","","","","","",""
"","expInstructions","html-button-response","95","339525","0.0-32.0-0.7","6144","expInstruc","0","","","","","","","","","","","","","","","","","","","","","","","","","","","","","","","","","","","","","","",""
"","expInstructions","html-button-response","96","352117","0.0-32.0-0.8","12589","expInstruc","0","","","","","","","","","","","","","","","","","","","","","","","","","","","","","","","","","","","","","","",""
"","expInstructions","html-button-response","97","356916","0.0-32.0-0.9","4795","expInstruc","0","","","","","","","","","","","","","","","","","","","","","","","","","","","","","","","","","","","","","","",""
"","expInstructions","html-button-response","98","402981","0.0-32.0-0.10","46062","expInstruc","0","","","","","","","","","","","","","","","","","","","","","","","","","","","","","","","","","","","","","","",""
"","expInstructions","html-button-response","99","408368","0.0-32.0-0.11","5385","expInstruc","0","","","","","","","","","","","","","","","","","","","","","","","","","","","","","","","","","","","","","","",""
"","expInstructions","html-button-response","100","506536","0.0-32.0-0.12","98054","expInstruc","0","","","","","","","","","","","","","","","","","","","","","","","","","","","","","","","","","","","","","","",""
"","block_message","html-button-response","101","511970","0.0-33.0","5431","block message","0","","","","","","","","","","","","","1","","","","","","","","","","","","","","","","","","","","","","","","","",""
"","fixation","html-keyboard-response","102","513253","0.0-34.0-0.0","null","fixation","null","","-1","-1","","","","","","","","","","","","","","","","","","","","","","","","","","","","","","","","","","","",""
"","numerosity","html-keyboard-response","103","513771","0.0-34.0-1.0","null","[Dot display: left=300, right=265, diff=35]","null","","-1","-1","300","265","35","","","","","","","","","","","","","","","","","","","","","","","","","","","","","","","","",""
"","confidence_first","html-keyboard-response","104","521604","0.0-34.0-2.0","7829","Confidence judgement (first response)","","","-1","-1","","","","right","83.75","50","83.75","false","37","","","","","","","","","","","","","","","","","","","","","","","","","","",""
"","no_advice_display","html-button-response","105","523404","0.0-34.0-5.0-0.0","1798","noAdvice","0","","-1","-1","","","","","","","","","","","","","","","","","","","","","","","","","","","","","","","","","","","",""
"","blank_screen","html-keyboard-response","106","524207","0.0-34.0-5.0-1.0","null","blank","null","","-1","-1","","","","","","","","","","","","","","","","","","","","","","","","","","","","","","","","","","","",""
"","confidence_second","html-keyboard-response","107","526789","0.0-34.0-6.0","2575","Confidence judgment (second response)","","","-1","-1","","","","right","83.75","50","83.75","false","37","","","","","","","","","","","","","","","","","","","","","","","","","","",""
"","consolidated-trial-data","consolidated-trial-data","108","526792","0.0-35.0","null","consolidated-trial-data","null","","","","","","","","","","","","","","0","0","0","300","265","35","right","83.75","false","7829","3","nan","none","right","83.75","nan","false","2575","","","","","","","",""
"","fixation","html-keyboard-response","109","528019","0.0-36.0-0.0","null","fixation","null","","-1","-1","","","","","","","","","","","","","","","","","","","","","","","","","","","","","","","","","","","",""
"","numerosity","html-keyboard-response","110","528536","0.0-36.0-1.0","null","[Dot display: left=300, right=263, diff=37]","null","","-1","-1","300","263","37","","","","","","","","","","","","","","","","","","","","","","","","","","","","","","","","",""
"","confidence_first","html-keyboard-response","111","530972","0.0-36.0-2.0","2432","Confidence judgement (first response)","","","-1","-1","","","","right","98","50","98","false","40","","","","","","","","","","","","","","","","","","","","","","","","","","",""
"","advice_choice","html-button-response","112","532355","0.0-36.0-3.0-0.0","1380","[advice choice Y,N]","0","","-1","-1","","","","","","","","","","","","","","","","","","","","","","","","","","","","","","","","","","","",""
"","show_advice","html-keyboard-response","113","533160","0.0-36.0-3.0-1.0-0.0","null","[advice: left]","null","","-1","-1","","","","","","","","","","","","","","","","","","","","","","","","","","","","","left","","","","","","",""
"","confidence_second","html-keyboard-response","114","537655","0.0-36.0-6.0","4491","Confidence judgment (second response)","","","-1","-1","","","","left","97","97","50","true","40","","","","","","","","","","","","","","","","","","","","","","","","","","",""
"","consolidated-trial-data","consolidated-trial-data","115","537659","0.0-37.0","null","consolidated-trial-data","null","","","","","","","","","","","","","","0","1","1","300","263","37","right","98","false","2432","1","yes","left","left","97","true","true","4491","","","","","","","",""
"","fixation","html-keyboard-response","116","539065","0.0-38.0-0.0","null","fixation","null","","-1","-1","","","","","","","","","","","","","","","","","","","","","","","","","","","","","","","","","","","",""
"","numerosity","html-keyboard-response","117","539580","0.0-38.0-1.0","null","[Dot display: left=260, right=300, diff=40]","null","","-1","-1","260","300","40","","","","","","","","","","","","","","","","","","","","","","","","","","","","","","","","",""
"","confidence_first","html-keyboard-response","118","541757","0.0-38.0-2.0","2173","Confidence judgement (first response)","","","-1","-1","","","","right","90.25","50","90.25","true","39","","","","","","","","","","","","","","","","","","","","","","","","","","",""
"","forced_advice_display","html-button-response","119","543005","0.0-38.0-4.0-0.0","1246","forcedAdvice","0","","-1","-1","","","","","","","","","","","","","","","","","","","","","","","","","","","","","","","","","","","",""
"","show_advice","html-keyboard-response","120","543808","0.0-38.0-4.0-1.0","null","[advice: left]","null","","-1","-1","","","","","","","","","","","","","","","","","","","","","","","","","","","","","left","","","","","","",""
"","confidence_second","html-keyboard-response","121","548554","0.0-38.0-6.0","4742","Confidence judgment (second response)","","","-1","-1","","","","left","51","51","50","false","39","","","","","","","","","","","","","","","","","","","","","","","","","","",""
"","consolidated-trial-data","consolidated-trial-data","122","548557","0.0-39.0","null","consolidated-trial-data","null","","","","","","","","","","","","","","0","2","2","260","300","40","right","90.25","true","2173","2","yes","left","left","51","false","false","4742","","","","","","","",""
"","fixation","html-keyboard-response","123","549867","0.0-40.0-0.0","null","fixation","null","","-1","-1","","","","","","","","","","","","","","","","","","","","","","","","","","","","","","","","","","","",""
"","numerosity","html-keyboard-response","124","550386","0.0-40.0-1.0","null","[Dot display: left=300, right=261, diff=39]","null","","-1","-1","300","261","39","","","","","","","","","","","","","","","","","","","","","","","","","","","","","","","","",""
"","confidence_first","html-keyboard-response","125","554092","0.0-40.0-2.0","3702","Confidence judgement (first response)","","","-1","-1","","","","left","82.75","82.75","50","true","38","","","","","","","","","","","","","","","","","","","","","","","","","","",""
"","advice_choice","html-button-response","126","555256","0.0-40.0-3.0-0.0","1162","[advice choice Y,N]","0","","-1","-1","","","","","","","","","","","","","","","","","","","","","","","","","","","","","","","","","","","",""
"","show_advice","html-keyboard-response","127","556060","0.0-40.0-3.0-1.0-0.0","null","[advice: left]","null","","-1","-1","","","","","","","","","","","","","","","","","","","","","","","","","","","","","left","","","","","","",""
"","confidence_second","html-keyboard-response","128","557039","0.0-40.0-6.0","976","Confidence judgment (second response)","","","-1","-1","","","","left","82.75","82.75","50","true","38","","","","","","","","","","","","","","","","","","","","","","","","","","",""
"","consolidated-trial-data","consolidated-trial-data","129","557042","0.0-41.0","null","consolidated-trial-data","null","","","","","","","","","","","","","","0","3","3","300","261","39","left","82.75","true","3702","1","yes","left","left","82.75","true","true","976","","","","","","","",""
"","fixation","html-keyboard-response","130","558349","0.0-42.0-0.0","null","fixation","null","","-1","-1","","","","","","","","","","","","","","","","","","","","","","","","","","","","","","","","","","","",""
"","numerosity","html-keyboard-response","131","558866","0.0-42.0-1.0","null","[Dot display: left=262, right=300, diff=38]","null","","-1","-1","262","300","38","","","","","","","","","","","","","","","","","","","","","","","","","","","","","","","","",""
"","confidence_first","html-keyboard-response","132","560724","0.0-42.0-2.0","1854","Confidence judgement (first response)","","","-1","-1","","","","right","98.75","50","98.75","true","38","","","","","","","","","","","","","","","","","","","","","","","","","","",""
"","forced_advice_display","html-button-response","133","561790","0.0-42.0-4.0-0.0","1064","forcedAdvice","0","","-1","-1","","","","","","","","","","","","","","","","","","","","","","","","","","","","","","","","","","","",""
"","show_advice","html-keyboard-response","134","562593","0.0-42.0-4.0-1.0","null","[advice: right]","null","","-1","-1","","","","","","","","","","","","","","","","","","","","","","","","","","","","","right","","","","","","",""
"","confidence_second","html-keyboard-response","135","563623","0.0-42.0-6.0","1026","Confidence judgment (second response)","","","-1","-1","","","","right","98.75","50","98.75","true","38","","","","","","","","","","","","","","","","","","","","","","","","","","",""
"","consolidated-trial-data","consolidated-trial-data","136","563626","0.0-43.0","null","consolidated-trial-data","null","","","","","","","","","","","","","","0","4","4","262","300","38","right","98.75","true","1854","2","yes","right","right","98.75","true","true","1026","","","","","","","",""
"","fixation","html-keyboard-response","137","565102","0.0-44.0-0.0","null","fixation","null","","-1","-1","","","","","","","","","","","","","","","","","","","","","","","","","","","","","","","","","","","",""
"","numerosity","html-keyboard-response","138","565617","0.0-44.0-1.0","null","[Dot display: left=300, right=262, diff=38]","null","","-1","-1","300","262","38","","","","","","","","","","","","","","","","","","","","","","","","","","","","","","","","",""
"","confidence_first","html-keyboard-response","139","568075","0.0-44.0-2.0","2453","Confidence judgement (first response)","","","-1","-1","","","","left","90.75","90.75","50","true","37","","","","","","","","","","","","","","","","","","","","","","","","","","",""
"","advice_choice","html-button-response","140","569157","0.0-44.0-3.0-0.0","1080","[advice choice Y,N]","0","","-1","-1","","","","","","","","","","","","","","","","","","","","","","","","","","","","","","","","","","","",""
"","show_advice","html-keyboard-response","141","569961","0.0-44.0-3.0-1.0-0.0","null","[advice: left]","null","","-1","-1","","","","","","","","","","","","","","","","","","","","","","","","","","","","","left","","","","","","",""
"","confidence_second","html-keyboard-response","142","570874","0.0-44.0-6.0","908.9999999998836","Confidence judgment (second response)","","","-1","-1","","","","left","90.75","90.75","50","true","37","","","","","","","","","","","","","","","","","","","","","","","","","","",""
"","consolidated-trial-data","consolidated-trial-data","143","570877","0.0-45.0","null","consolidated-trial-data","null","","","","","","","","","","","","","","0","5","5","300","262","38","left","90.75","true","2453","1","yes","left","left","90.75","true","true","908.9999999998836","","","","","","","",""
"","fixation","html-keyboard-response","144","572356","0.0-46.0-0.0","null","fixation","null","","-1","-1","","","","","","","","","","","","","","","","","","","","","","","","","","","","","","","","","","","",""
"","numerosity","html-keyboard-response","145","572873","0.0-46.0-1.0","null","[Dot display: left=263, right=300, diff=37]","null","","-1","-1","263","300","37","","","","","","","","","","","","","","","","","","","","","","","","","","","","","","","","",""
"","confidence_first","html-keyboard-response","146","574458","0.0-46.0-2.0","1581","Confidence judgement (first response)","","","-1","-1","","","","right","98.75","50","98.75","true","37","","","","","","","","","","","","","","","","","","","","","","","","","","",""
"","no_advice_display","html-button-response","147","575506","0.0-46.0-5.0-0.0","1045","noAdvice","0","","-1","-1","","","","","","","","","","","","","","","","","","","","","","","","","","","","","","","","","","","",""
"","blank_screen","html-keyboard-response","148","576308","0.0-46.0-5.0-1.0","null","blank","null","","-1","-1","","","","","","","","","","","","","","","","","","","","","","","","","","","","","","","","","","","",""
"","confidence_second","html-keyboard-response","149","577741","0.0-46.0-6.0","1429","Confidence judgment (second response)","","","-1","-1","","","","right","98.75","50","98.75","true","37","","","","","","","","","","","","","","","","","","","","","","","","","","",""
"","consolidated-trial-data","consolidated-trial-data","150","577745","0.0-47.0","null","consolidated-trial-data","null","","","","","","","","","","","","","","0","6","6","263","300","37","right","98.75","true","1581","3","yes","left","right","98.75","false","true","1429","","","","","","","",""
"","attncheck","html-button-response","151","579807","0.0-48.0","2060","attncheck","2","","","","","","","","","","","","","","","","","","","","","","","","","","","","","","","","","true","Next","","","","",""
"","fixation","html-keyboard-response","152","581038","0.0-49.0-0.0","null","fixation","null","","-1","-1","","","","","","","","","","","","","","","","","","","","","","","","","","","","","","","","","","","",""
"","numerosity","html-keyboard-response","153","581555","0.0-49.0-1.0","null","[Dot display: left=263, right=300, diff=37]","null","","-1","-1","263","300","37","","","","","","","","","","","","","","","","","","","","","","","","","","","","","","","","",""
"","confidence_first","html-keyboard-response","154","583924","0.0-49.0-2.0","2364","Confidence judgement (first response)","","","-1","-1","","","","right","51.75","50","51.75","true","36","","","","","","","","","","","","","","","","","","","","","","","","","","",""
"","forced_advice_display","html-button-response","155","584624","0.0-49.0-4.0-0.0","698","forcedAdvice","0","","-1","-1","","","","","","","","","","","","","","","","","","","","","","","","","","","","","","","","","","","",""
"","show_advice","html-keyboard-response","156","585428","0.0-49.0-4.0-1.0","null","[advice: left]","null","","-1","-1","","","","","","","","","","","","","","","","","","","","","","","","","","","","","left","","","","","","",""
"","confidence_second","html-keyboard-response","157","587757","0.0-49.0-6.0","2325","Confidence judgment (second response)","","","-1","-1","","","","left","75","75","50","false","36","","","","","","","","","","","","","","","","","","","","","","","","","","",""
"","consolidated-trial-data","consolidated-trial-data","158","587760","0.0-50.0","null","consolidated-trial-data","null","","","","","","","","","","","","","","0","7","7","263","300","37","right","51.75","true","2364","2","yes","left","left","75","false","false","2325","","","","","","","",""
"","fixation","html-keyboard-response","159","589032","0.0-51.0-0.0","null","fixation","null","","-1","-1","","","","","","","","","","","","","","","","","","","","","","","","","","","","","","","","","","","",""
"","numerosity","html-keyboard-response","160","589550","0.0-51.0-1.0","null","[Dot display: left=264, right=300, diff=36]","null","","-1","-1","264","300","36","","","","","","","","","","","","","","","","","","","","","","","","","","","","","","","","",""
"","confidence_first","html-keyboard-response","161","591493","0.0-51.0-2.0","1939","Confidence judgement (first response)","","","-1","-1","","","","right","90","50","90","true","36","","","","","","","","","","","","","","","","","","","","","","","","","","",""
"","advice_choice","html-button-response","162","593897","0.0-51.0-3.0-0.0","2401","[advice choice Y,N]","0","","-1","-1","","","","","","","","","","","","","","","","","","","","","","","","","","","","","","","","","","","",""
"","show_advice","html-keyboard-response","163","594701","0.0-51.0-3.0-1.0-0.0","null","[advice: right]","null","","-1","-1","","","","","","","","","","","","","","","","","","","","","","","","","","","","","right","","","","","","",""
"","confidence_second","html-keyboard-response","164","596896","0.0-51.0-6.0","2190.9999999998836","Confidence judgment (second response)","","","-1","-1","","","","right","90","50","90","true","36","","","","","","","","","","","","","","","","","","","","","","","","","","",""
"","consolidated-trial-data","consolidated-trial-data","165","596900","0.0-52.0","null","consolidated-trial-data","null","","","","","","","","","","","","","","0","8","8","264","300","36","right","90","true","1939","1","yes","right","right","90","true","true","2190.9999999998836","","","","","","","",""
"","fixation","html-keyboard-response","166","598281","0.0-53.0-0.0","null","fixation","null","","-1","-1","","","","","","","","","","","","","","","","","","","","","","","","","","","","","","","","","","","",""
"","numerosity","html-keyboard-response","167","598796","0.0-53.0-1.0","null","[Dot display: left=300, right=264, diff=36]","null","","-1","-1","300","264","36","","","","","","","","","","","","","","","","","","","","","","","","","","","","","","","","",""
"","confidence_first","html-keyboard-response","168","600364","0.0-53.0-2.0","1565.0000000001164","Confidence judgement (first response)","","","-1","-1","","","","left","90.75","90.75","50","true","36","","","","","","","","","","","","","","","","","","","","","","","","","","",""
"","no_advice_display","html-button-response","169","601230","0.0-53.0-5.0-0.0","863","noAdvice","0","","-1","-1","","","","","","","","","","","","","","","","","","","","","","","","","","","","","","","","","","","",""
"","blank_screen","html-keyboard-response","170","602033","0.0-53.0-5.0-1.0","null","blank","null","","-1","-1","","","","","","","","","","","","","","","","","","","","","","","","","","","","","","","","","","","",""
"","confidence_second","html-keyboard-response","171","603480","0.0-53.0-6.0","1442.9999999998836","Confidence judgment (second response)","","","-1","-1","","","","left","90.75","90.75","50","true","36","","","","","","","","","","","","","","","","","","","","","","","","","","",""
"","consolidated-trial-data","consolidated-trial-data","172","603484","0.0-54.0","null","consolidated-trial-data","null","","","","","","","","","","","","","","0","9","9","300","264","36","left","90.75","true","1565.0000000001164","3","yes","right","left","90.75","false","true","1442.9999999998836","","","","","","","",""
"","fixation","html-keyboard-response","173","604740","0.0-55.0-0.0","null","fixation","null","","-1","-1","","","","","","","","","","","","","","","","","","","","","","","","","","","","","","","","","","","",""
"","numerosity","html-keyboard-response","174","605258","0.0-55.0-1.0","null","[Dot display: left=264, right=300, diff=36]","null","","-1","-1","264","300","36","","","","","","","","","","","","","","","","","","","","","","","","","","","","","","","","",""
"","confidence_first","html-keyboard-response","175","606832","0.0-55.0-2.0","1569.0000000001164","Confidence judgement (first response)","","","-1","-1","","","","left","87.75","87.75","50","false","37","","","","","","","","","","","","","","","","","","","","","","","","","","",""
"","advice_choice","html-button-response","176","607581","0.0-55.0-3.0-0.0","747","[advice choice Y,N]","0","","-1","-1","","","","","","","","","","","","","","","","","","","","","","","","","","","","","","","","","","","",""
"","show_advice","html-keyboard-response","177","608384","0.0-55.0-3.0-1.0-0.0","null","[advice: right]","null","","-1","-1","","","","","","","","","","","","","","","","","","","","","","","","","","","","","right","","","","","","",""
"","confidence_second","html-keyboard-response","178","610214","0.0-55.0-6.0","1824.9999999998836","Confidence judgment (second response)","","","-1","-1","","","","right","88.25","50","88.25","true","37","","","","","","","","","","","","","","","","","","","","","","","","","","",""
"","consolidated-trial-data","consolidated-trial-data","179","610217","0.0-56.0","null","consolidated-trial-data","null","","","","","","","","","","","","","","0","10","10","264","300","36","left","87.75","false","1569.0000000001164","1","yes","right","right","88.25","true","true","1824.9999999998836","","","","","","","",""
"","attncheck","html-button-response","180","612114","0.0-57.0","1895","attncheck","1","","","","","","","","","","","","","","","","","","","","","","","","","","","","","","","","","true","Continue","","","","",""
"","fixation","html-keyboard-response","181","613462","0.0-58.0-0.0","null","fixation","null","","-1","-1","","","","","","","","","","","","","","","","","","","","","","","","","","","","","","","","","","","",""
"","numerosity","html-keyboard-response","182","613979","0.0-58.0-1.0","null","[Dot display: left=300, right=263, diff=37]","null","","-1","-1","300","263","37","","","","","","","","","","","","","","","","","","","","","","","","","","","","","","","","",""
"","confidence_first","html-keyboard-response","183","615449","0.0-58.0-2.0","1465","Confidence judgement (first response)","","","-1","-1","","","","left","88.5","88.5","50","true","37","","","","","","","","","","","","","","","","","","","","","","","","","","",""
"","no_advice_display","html-button-response","184","616097","0.0-58.0-5.0-0.0","646","noAdvice","0","","-1","-1","","","","","","","","","","","","","","","","","","","","","","","","","","","","","","","","","","","",""
"","blank_screen","html-keyboard-response","185","616900","0.0-58.0-5.0-1.0","null","blank","null","","-1","-1","","","","","","","","","","","","","","","","","","","","","","","","","","","","","","","","","","","",""
"","confidence_second","html-keyboard-response","186","618064","0.0-58.0-6.0","1160","Confidence judgment (second response)","","","-1","-1","","","","left","88.5","88.5","50","true","37","","","","","","","","","","","","","","","","","","","","","","","","","","",""
"","consolidated-trial-data","consolidated-trial-data","187","618068","0.0-59.0","null","consolidated-trial-data","null","","","","","","","","","","","","","","0","11","11","300","263","37","left","88.5","true","1465","3","yes","right","left","88.5","false","true","1160","","","","","","","",""
"","fixation","html-keyboard-response","188","619476","0.0-60.0-0.0","null","fixation","null","","-1","-1","","","","","","","","","","","","","","","","","","","","","","","","","","","","","","","","","","","",""
"","numerosity","html-keyboard-response","189","619992","0.0-60.0-1.0","null","[Dot display: left=263, right=300, diff=37]","null","","-1","-1","263","300","37","","","","","","","","","","","","","","","","","","","","","","","","","","","","","","","","",""
"","confidence_first","html-keyboard-response","190","621582","0.0-60.0-2.0","1585","Confidence judgement (first response)","","","-1","-1","","","","right","91.75","50","91.75","true","37","","","","","","","","","","","","","","","","","","","","","","","","","","",""
"","forced_advice_display","html-button-response","191","622314","0.0-60.0-4.0-0.0","731","forcedAdvice","0","","-1","-1","","","","","","","","","","","","","","","","","","","","","","","","","","","","","","","","","","","",""
"","show_advice","html-keyboard-response","192","623117","0.0-60.0-4.0-1.0","null","[advice: right]","null","","-1","-1","","","","","","","","","","","","","","","","","","","","","","","","","","","","","right","","","","","","",""
"","confidence_second","html-keyboard-response","193","624082","0.0-60.0-6.0","961","Confidence judgment (second response)","","","-1","-1","","","","right","91.75","50","91.75","true","37","","","","","","","","","","","","","","","","","","","","","","","","","","",""
"","consolidated-trial-data","consolidated-trial-data","194","624086","0.0-61.0","null","consolidated-trial-data","null","","","","","","","","","","","","","","0","12","12","263","300","37","right","91.75","true","1585","2","yes","right","right","91.75","true","true","961","","","","","","","",""
"","attncheck","html-button-response","195","625214","0.0-62.0","1125","attncheck","1","","","","","","","","","","","","","","","","","","","","","","","","","","","","","","","","","false","Next","","","","",""
"","fixation","html-keyboard-response","196","626506","0.0-63.0-0.0","null","fixation","null","","-1","-1","","","","","","","","","","","","","","","","","","","","","","","","","","","","","","","","","","","",""
"","numerosity","html-keyboard-response","197","627023","0.0-63.0-1.0","null","[Dot display: left=263, right=300, diff=37]","null","","-1","-1","263","300","37","","","","","","","","","","","","","","","","","","","","","","","","","","","","","","","","",""
"","confidence_first","html-keyboard-response","198","629116","0.0-63.0-2.0","2089","Confidence judgement (first response)","","","-1","-1","","","","left","87.5","87.5","50","false","38","","","","","","","","","","","","","","","","","","","","","","","","","","",""
"","no_advice_display","html-button-response","199","629998","0.0-63.0-5.0-0.0","879","noAdvice","0","","-1","-1","","","","","","","","","","","","","","","","","","","","","","","","","","","","","","","","","","","",""
"","blank_screen","html-keyboard-response","200","630800","0.0-63.0-5.0-1.0","null","blank","null","","-1","-1","","","","","","","","","","","","","","","","","","","","","","","","","","","","","","","","","","","",""
"","confidence_second","html-keyboard-response","201","632099","0.0-63.0-6.0","1295","Confidence judgment (second response)","","","-1","-1","","","","left","87.5","87.5","50","false","38","","","","","","","","","","","","","","","","","","","","","","","","","","",""
"","consolidated-trial-data","consolidated-trial-data","202","632103","0.0-64.0","null","consolidated-trial-data","null","","","","","","","","","","","","","","0","13","13","263","300","37","left","87.5","false","2089","3","yes","right","left","87.5","true","false","1295","","","","","","","",""
"","fixation","html-keyboard-response","203","633596","0.0-65.0-0.0","null","fixation","null","","-1","-1","","","","","","","","","","","","","","","","","","","","","","","","","","","","","","","","","","","",""
"","numerosity","html-keyboard-response","204","634113","0.0-65.0-1.0","null","[Dot display: left=300, right=262, diff=38]","null","","-1","-1","300","262","38","","","","","","","","","","","","","","","","","","","","","","","","","","","","","","","","",""
"","confidence_first","html-keyboard-response","205","636200","0.0-65.0-2.0","2083","Confidence judgement (first response)","","","-1","-1","","","","right","99.75","50","99.75","false","40","","","","","","","","","","","","","","","","","","","","","","","","","","",""
"","forced_advice_display","html-button-response","206","636965","0.0-65.0-4.0-0.0","762","forcedAdvice","0","","-1","-1","","","","","","","","","","","","","","","","","","","","","","","","","","","","","","","","","","","",""
"","show_advice","html-keyboard-response","207","637769","0.0-65.0-4.0-1.0","null","[advice: left]","null","","-1","-1","","","","","","","","","","","","","","","","","","","","","","","","","","","","","left","","","","","","",""
"","confidence_second","html-keyboard-response","208","640783","0.0-65.0-6.0","3011","Confidence judgment (second response)","","","-1","-1","","","","left","87.5","87.5","50","true","40","","","","","","","","","","","","","","","","","","","","","","","","","","",""
"","consolidated-trial-data","consolidated-trial-data","209","640787","0.0-66.0","null","consolidated-trial-data","null","","","","","","","","","","","","","","0","14","14","300","262","38","right","99.75","false","2083","2","yes","left","left","87.5","true","true","3011","","","","","","","",""
"","block_message","html-button-response","210","646417","0.0-67.0","5627","block message","0","","","","","","","","","","","","","2","","","","","","","","","","","","","","","","","","","","","","","","","",""
"","fixation","html-keyboard-response","211","647704","0.0-68.0-0.0","null","fixation","null","","-1","-1","","","","","","","","","","","","","","","","","","","","","","","","","","","","","","","","","","","",""
"","numerosity","html-keyboard-response","212","648220","0.0-68.0-1.0","null","[Dot display: left=300, right=260, diff=40]","null","","-1","-1","300","260","40","","","","","","","","","","","","","","","","","","","","","","","","","","","","","","","","",""
"","confidence_first","html-keyboard-response","213","649466","0.0-68.0-2.0","1242.0000000001164","Confidence judgement (first response)","","","-1","-1","","","","left","86","86","50","true","39","","","","","","","","","","","","","","","","","","","","","","","","","","",""
"","no_advice_display","html-button-response","214","650216","0.0-68.0-5.0-0.0","748","noAdvice","0","","-1","-1","","","","","","","","","","","","","","","","","","","","","","","","","","","","","","","","","","","",""
"","blank_screen","html-keyboard-response","215","651019","0.0-68.0-5.0-1.0","null","blank","null","","-1","-1","","","","","","","","","","","","","","","","","","","","","","","","","","","","","","","","","","","",""
"","confidence_second","html-keyboard-response","216","651865","0.0-68.0-6.0","842","Confidence judgment (second response)","","","-1","-1","","","","left","86","86","50","true","39","","","","","","","","","","","","","","","","","","","","","","","","","","",""
"","consolidated-trial-data","consolidated-trial-data","217","651868","0.0-69.0","null","consolidated-trial-data","null","","","","","","","","","","","","","","1","0","15","300","260","40","left","86","true","1242.0000000001164","3","yes","left","left","86","true","true","842","","","","","","","",""
"","fixation","html-keyboard-response","218","653262","0.0-70.0-0.0","null","fixation","null","","-1","-1","","","","","","","","","","","","","","","","","","","","","","","","","","","","","","","","","","","",""
"","numerosity","html-keyboard-response","219","653780","0.0-70.0-1.0","null","[Dot display: left=300, right=261, diff=39]","null","","-1","-1","300","261","39","","","","","","","","","","","","","","","","","","","","","","","","","","","","","","","","",""
"","confidence_first","html-keyboard-response","220","654919","0.0-70.0-2.0","1133","Confidence judgement (first response)","","","-1","-1","","","","right","85.25","50","85.25","false","41","","","","","","","","","","","","","","","","","","","","","","","","","","",""
"","advice_choice","html-button-response","221","655584","0.0-70.0-3.0-0.0","662","[advice choice Y,N]","0","","-1","-1","","","","","","","","","","","","","","","","","","","","","","","","","","","","","","","","","","","",""
"","show_advice","html-keyboard-response","222","656388","0.0-70.0-3.0-1.0-0.0","null","[advice: left]","null","","-1","-1","","","","","","","","","","","","","","","","","","","","","","","","","","","","","left","","","","","","",""
"","confidence_second","html-keyboard-response","223","658985","0.0-70.0-6.0","2592.0000000001164","Confidence judgment (second response)","","","-1","-1","","","","left","81.5","81.5","50","true","41","","","","","","","","","","","","","","","","","","","","","","","","","","",""
"","consolidated-trial-data","consolidated-trial-data","224","658989","0.0-71.0","null","consolidated-trial-data","null","","","","","","","","","","","","","","1","1","16","300","261","39","right","85.25","false","1133","1","yes","left","left","81.5","true","true","2592.0000000001164","","","","","","","",""
"","fixation","html-keyboard-response","225","660216","0.0-72.0-0.0","null","fixation","null","","-1","-1","","","","","","","","","","","","","","","","","","","","","","","","","","","","","","","","","","","",""
"","numerosity","html-keyboard-response","226","660731","0.0-72.0-1.0","null","[Dot display: left=300, right=259, diff=41]","null","","-1","-1","300","259","41","","","","","","","","","","","","","","","","","","","","","","","","","","","","","","","","",""
"","confidence_first","html-keyboard-response","227","662318","0.0-72.0-2.0","1582","Confidence judgement (first response)","","","-1","-1","","","","left","85.75","85.75","50","true","41","","","","","","","","","","","","","","","","","","","","","","","","","","",""
"","forced_advice_display","html-button-response","228","662899","0.0-72.0-4.0-0.0","578","forcedAdvice","0","","-1","-1","","","","","","","","","","","","","","","","","","","","","","","","","","","","","","","","","","","",""
"","show_advice","html-keyboard-response","229","663703","0.0-72.0-4.0-1.0","null","[advice: left]","null","","-1","-1","","","","","","","","","","","","","","","","","","","","","","","","","","","","","left","","","","","","",""
"","confidence_second","html-keyboard-response","230","665135","0.0-72.0-6.0","1427","Confidence judgment (second response)","","","-1","-1","","","","left","85.75","85.75","50","true","41","","","","","","","","","","","","","","","","","","","","","","","","","","",""
"","consolidated-trial-data","consolidated-trial-data","231","665138","0.0-73.0","null","consolidated-trial-data","null","","","","","","","","","","","","","","1","2","17","300","259","41","left","85.75","true","1582","2","yes","left","left","85.75","true","true","1427","","","","","","","",""
"","fixation","html-keyboard-response","232","666398","0.0-74.0-0.0","null","fixation","null","","-1","-1","","","","","","","","","","","","","","","","","","","","","","","","","","","","","","","","","","","",""
"","numerosity","html-keyboard-response","233","666915","0.0-74.0-1.0","null","[Dot display: left=259, right=300, diff=41]","null","","-1","-1","259","300","41","","","","","","","","","","","","","","","","","","","","","","","","","","","","","","","","",""
"","confidence_first","html-keyboard-response","234","668683","0.0-74.0-2.0","1765","Confidence judgement (first response)","","","-1","-1","","","","right","86.25","50","86.25","true","40","","","","","","","","","","","","","","","","","","","","","","","","","","",""
"","advice_choice","html-button-response","235","669435","0.0-74.0-3.0-0.0","750","[advice choice Y,N]","0","","-1","-1","","","","","","","","","","","","","","","","","","","","","","","","","","","","","","","","","","","",""
"","show_advice","html-keyboard-response","236","670238","0.0-74.0-3.0-1.0-0.0","null","[advice: left]","null","","-1","-1","","","","","","","","","","","","","","","","","","","","","","","","","","","","","left","","","","","","",""
"","confidence_second","html-keyboard-response","237","673152","0.0-74.0-6.0","2909","Confidence judgment (second response)","","","-1","-1","","","","left","82.5","82.5","50","false","40","","","","","","","","","","","","","","","","","","","","","","","","","","",""
"","consolidated-trial-data","consolidated-trial-data","238","673155","0.0-75.0","null","consolidated-trial-data","null","","","","","","","","","","","","","","1","3","18","259","300","41","right","86.25","true","1765","1","yes","left","left","82.5","false","false","2909","","","","","","","",""
"","attncheck","html-button-response","239","674350","0.0-76.0","1193","attncheck","1","","","","","","","","","","","","","","","","","","","","","","","","","","","","","","","","","false","Stop","","","","",""
"","fixation","html-keyboard-response","240","675759","0.0-77.0-0.0","null","fixation","null","","-1","-1","","","","","","","","","","","","","","","","","","","","","","","","","","","","","","","","","","","",""
"","numerosity","html-keyboard-response","241","676276","0.0-77.0-1.0","null","[Dot display: left=260, right=300, diff=40]","null","","-1","-1","260","300","40","","","","","","","","","","","","","","","","","","","","","","","","","","","","","","","","",""
"","confidence_first","html-keyboard-response","242","680736","0.0-77.0-2.0","4456","Confidence judgement (first response)","","","-1","-1","","","","right","64","50","64","true","40","","","","","","","","","","","","","","","","","","","","","","","","","","",""
"","forced_advice_display","html-button-response","243","681485","0.0-77.0-4.0-0.0","747","forcedAdvice","0","","-1","-1","","","","","","","","","","","","","","","","","","","","","","","","","","","","","","","","","","","",""
"","show_advice","html-keyboard-response","244","682289","0.0-77.0-4.0-1.0","null","[advice: right]","null","","-1","-1","","","","","","","","","","","","","","","","","","","","","","","","","","","","","right","","","","","","",""
"","confidence_second","html-keyboard-response","245","683417","0.0-77.0-6.0","1124","Confidence judgment (second response)","","","-1","-1","","","","right","64","50","64","true","40","","","","","","","","","","","","","","","","","","","","","","","","","","",""
"","consolidated-trial-data","consolidated-trial-data","246","683420","0.0-78.0","null","consolidated-trial-data","null","","","","","","","","","","","","","","1","4","19","260","300","40","right","64","true","4456","2","yes","right","right","64","true","true","1124","","","","","","","",""
"","fixation","html-keyboard-response","247","684860","0.0-79.0-0.0","null","fixation","null","","-1","-1","","","","","","","","","","","","","","","","","","","","","","","","","","","","","","","","","","","",""
"","numerosity","html-keyboard-response","248","685378","0.0-79.0-1.0","null","[Dot display: left=300, right=260, diff=40]","null","","-1","-1","300","260","40","","","","","","","","","","","","","","","","","","","","","","","","","","","","","","","","",""
"","confidence_first","html-keyboard-response","249","687053","0.0-79.0-2.0","1672","Confidence judgement (first response)","","","-1","-1","","","","left","85.25","85.25","50","true","39","","","","","","","","","","","","","","","","","","","","","","","","","","",""
"","advice_choice","html-button-response","250","688453","0.0-79.0-3.0-0.0","1397","[advice choice Y,N]","0","","-1","-1","","","","","","","","","","","","","","","","","","","","","","","","","","","","","","","","","","","",""
"","show_advice","html-keyboard-response","251","689257","0.0-79.0-3.0-1.0-0.0","null","[advice: left]","null","","-1","-1","","","","","","","","","","","","","","","","","","","","","","","","","","","","","left","","","","","","",""
"","confidence_second","html-keyboard-response","252","690203","0.0-79.0-6.0","941","Confidence judgment (second response)","","","-1","-1","","","","left","85.25","85.25","50","true","39","","","","","","","","","","","","","","","","","","","","","","","","","","",""
"","consolidated-trial-data","consolidated-trial-data","253","690207","0.0-80.0","null","consolidated-trial-data","null","","","","","","","","","","","","","","1","5","20","300","260","40","left","85.25","true","1672","1","yes","left","left","85.25","true","true","941","","","","","","","",""
"","attncheck","html-button-response","254","692335","0.0-81.0","2126","attncheck","2","","","","","","","","","","","","","","","","","","","","","","","","","","","","","","","","","true","Next","","","","",""
"","fixation","html-keyboard-response","255","693767","0.0-82.0-0.0","null","fixation","null","","-1","-1","","","","","","","","","","","","","","","","","","","","","","","","","","","","","","","","","","","",""
"","numerosity","html-keyboard-response","256","694285","0.0-82.0-1.0","null","[Dot display: left=261, right=300, diff=39]","null","","-1","-1","261","300","39","","","","","","","","","","","","","","","","","","","","","","","","","","","","","","","","",""
"","confidence_first","html-keyboard-response","257","696504","0.0-82.0-2.0","2215.0000000001164","Confidence judgement (first response)","","","-1","-1","","","","left","88","88","50","false","41","","","","","","","","","","","","","","","","","","","","","","","","","","",""
"","no_advice_display","html-button-response","258","697286","0.0-82.0-5.0-0.0","780","noAdvice","0","","-1","-1","","","","","","","","","","","","","","","","","","","","","","","","","","","","","","","","","","","",""
"","blank_screen","html-keyboard-response","259","698089","0.0-82.0-5.0-1.0","null","blank","null","","-1","-1","","","","","","","","","","","","","","","","","","","","","","","","","","","","","","","","","","","",""
"","confidence_second","html-keyboard-response","260","699537","0.0-82.0-6.0","1443","Confidence judgment (second response)","","","-1","-1","","","","left","88","88","50","false","41","","","","","","","","","","","","","","","","","","","","","","","","","","",""
"","consolidated-trial-data","consolidated-trial-data","261","699541","0.0-83.0","null","consolidated-trial-data","null","","","","","","","","","","","","","","1","6","21","261","300","39","left","88","false","2215.0000000001164","3","yes","left","left","88","false","false","1443","","","","","","","",""
"","fixation","html-keyboard-response","262","700810","0.0-84.0-0.0","null","fixation","null","","-1","-1","","","","","","","","","","","","","","","","","","","","","","","","","","","","","","","","","","","",""
"","numerosity","html-keyboard-response","263","701327","0.0-84.0-1.0","null","[Dot display: left=300, right=259, diff=41]","null","","-1","-1","300","259","41","","","","","","","","","","","","","","","","","","","","","","","","","","","","","","","","",""
"","confidence_first","html-keyboard-response","264","702971","0.0-84.0-2.0","1639.9999999998836","Confidence judgement (first response)","","","-1","-1","","","","left","91.5","91.5","50","true","41","","","","","","","","","","","","","","","","","","","","","","","","","","",""
"","forced_advice_display","html-button-response","265","704237","0.0-84.0-4.0-0.0","1264","forcedAdvice","0","","-1","-1","","","","","","","","","","","","","","","","","","","","","","","","","","","","","","","","","","","",""
"","show_advice","html-keyboard-response","266","705041","0.0-84.0-4.0-1.0","null","[advice: left]","null","","-1","-1","","","","","","","","","","","","","","","","","","","","","","","","","","","","","left","","","","","","",""
"","confidence_second","html-keyboard-response","267","705772","0.0-84.0-6.0","728","Confidence judgment (second response)","","","-1","-1","","","","left","91.5","91.5","50","true","41","","","","","","","","","","","","","","","","","","","","","","","","","","",""
"","consolidated-trial-data","consolidated-trial-data","268","705774","0.0-85.0","null","consolidated-trial-data","null","","","","","","","","","","","","","","1","7","22","300","259","41","left","91.5","true","1639.9999999998836","2","yes","left","left","91.5","true","true","728","","","","","","","",""
"","fixation","html-keyboard-response","269","707055","0.0-86.0-0.0","null","fixation","null","","-1","-1","","","","","","","","","","","","","","","","","","","","","","","","","","","","","","","","","","","",""
"","numerosity","html-keyboard-response","270","707572","0.0-86.0-1.0","null","[Dot display: left=259, right=300, diff=41]","null","","-1","-1","259","300","41","","","","","","","","","","","","","","","","","","","","","","","","","","","","","","","","",""
"","confidence_first","html-keyboard-response","271","709005","0.0-86.0-2.0","1429","Confidence judgement (first response)","","","-1","-1","","","","right","68","50","68","true","40","","","","","","","","","","","","","","","","","","","","","","","","","","",""
"","advice_choice","html-button-response","272","710037","0.0-86.0-3.0-0.0","1030","[advice choice Y,N]","0","","-1","-1","","","","","","","","","","","","","","","","","","","","","","","","","","","","","","","","","","","",""
"","show_advice","html-keyboard-response","273","710841","0.0-86.0-3.0-1.0-0.0","null","[advice: right]","null","","-1","-1","","","","","","","","","","","","","","","","","","","","","","","","","","","","","right","","","","","","",""
"","confidence_second","html-keyboard-response","274","711621","0.0-86.0-6.0","776","Confidence judgment (second response)","","","-1","-1","","","","right","68","50","68","true","40","","","","","","","","","","","","","","","","","","","","","","","","","","",""
"","consolidated-trial-data","consolidated-trial-data","275","711625","0.0-87.0","null","consolidated-trial-data","null","","","","","","","","","","","","","","1","8","23","259","300","41","right","68","true","1429","1","yes","right","right","68","true","true","776","","","","","","","",""
"","fixation","html-keyboard-response","276","712867","0.0-88.0-0.0","null","fixation","null","","-1","-1","","","","","","","","","","","","","","","","","","","","","","","","","","","","","","","","","","","",""
"","numerosity","html-keyboard-response","277","713384","0.0-88.0-1.0","null","[Dot display: left=260, right=300, diff=40]","null","","-1","-1","260","300","40","","","","","","","","","","","","","","","","","","","","","","","","","","","","","","","","",""
"","confidence_first","html-keyboard-response","278","714772","0.0-88.0-2.0","1384","Confidence judgement (first response)","","","-1","-1","","","","left","83.75","83.75","50","false","42","","","","","","","","","","","","","","","","","","","","","","","","","","",""
"","no_advice_display","html-button-response","279","715404","0.0-88.0-5.0-0.0","630","noAdvice","0","","-1","-1","","","","","","","","","","","","","","","","","","","","","","","","","","","","","","","","","","","",""
"","blank_screen","html-keyboard-response","280","716207","0.0-88.0-5.0-1.0","null","blank","null","","-1","-1","","","","","","","","","","","","","","","","","","","","","","","","","","","","","","","","","","","",""
"","confidence_second","html-keyboard-response","281","717388","0.0-88.0-6.0","1177.0000000001164","Confidence judgment (second response)","","","-1","-1","","","","left","83.75","83.75","50","false","42","","","","","","","","","","","","","","","","","","","","","","","","","","",""
"","consolidated-trial-data","consolidated-trial-data","282","717392","0.0-89.0","null","consolidated-trial-data","null","","","","","","","","","","","","","","1","9","24","260","300","40","left","83.75","false","1384","3","yes","right","left","83.75","true","false","1177.0000000001164","","","","","","","",""
"","fixation","html-keyboard-response","283","718670","0.0-90.0-0.0","null","fixation","null","","-1","-1","","","","","","","","","","","","","","","","","","","","","","","","","","","","","","","","","","","",""
"","numerosity","html-keyboard-response","284","719191","0.0-90.0-1.0","null","[Dot display: left=258, right=300, diff=42]","null","","-1","-1","258","300","42","","","","","","","","","","","","","","","","","","","","","","","","","","","","","","","","",""
"","confidence_first","html-keyboard-response","285","721756","0.0-90.0-2.0","2561","Confidence judgement (first response)","","","-1","-1","","","","left","73.75","73.75","50","false","43","","","","","","","","","","","","","","","","","","","","","","","","","","",""
"","advice_choice","html-button-response","286","722570","0.0-90.0-3.0-0.0","812","[advice choice Y,N]","0","","-1","-1","","","","","","","","","","","","","","","","","","","","","","","","","","","","","","","","","","","",""
"","show_advice","html-keyboard-response","287","723373","0.0-90.0-3.0-1.0-0.0","null","[advice: right]","null","","-1","-1","","","","","","","","","","","","","","","","","","","","","","","","","","","","","right","","","","","","",""
"","confidence_second","html-keyboard-response","288","725672","0.0-90.0-6.0","2294","Confidence judgment (second response)","","","-1","-1","","","","right","87.75","50","87.75","true","43","","","","","","","","","","","","","","","","","","","","","","","","","","",""
"","consolidated-trial-data","consolidated-trial-data","289","725675","0.0-91.0","null","consolidated-trial-data","null","","","","","","","","","","","","","","1","10","25","258","300","42","left","73.75","false","2561","1","yes","right","right","87.75","true","true","2294","","","","","","","",""
"","attncheck","html-button-response","290","727289","0.0-92.0","1611","attncheck","2","","","","","","","","","","","","","","","","","","","","","","","","","","","","","","","","","true","Next","","","","",""
"","fixation","html-keyboard-response","291","728714","0.0-93.0-0.0","null","fixation","null","","-1","-1","","","","","","","","","","","","","","","","","","","","","","","","","","","","","","","","","","","",""
"","numerosity","html-keyboard-response","292","729230","0.0-93.0-1.0","null","[Dot display: left=300, right=257, diff=43]","null","","-1","-1","300","257","43","","","","","","","","","","","","","","","","","","","","","","","","","","","","","","","","",""
"","confidence_first","html-keyboard-response","293","730903","0.0-93.0-2.0","1669.0000000001164","Confidence judgement (first response)","","","-1","-1","","","","right","88","50","88","false","45","","","","","","","","","","","","","","","","","","","","","","","","","","",""
"","no_advice_display","html-button-response","294","731937","0.0-93.0-5.0-0.0","1032","noAdvice","0","","-1","-1","","","","","","","","","","","","","","","","","","","","","","","","","","","","","","","","","","","",""
"","blank_screen","html-keyboard-response","295","732740","0.0-93.0-5.0-1.0","null","blank","null","","-1","-1","","","","","","","","","","","","","","","","","","","","","","","","","","","","","","","","","","","",""
"","confidence_second","html-keyboard-response","296","733921","0.0-93.0-6.0","1177","Confidence judgment (second response)","","","-1","-1","","","","right","88","50","88","false","45","","","","","","","","","","","","","","","","","","","","","","","","","","",""
"","consolidated-trial-data","consolidated-trial-data","297","733924","0.0-94.0","null","consolidated-trial-data","null","","","","","","","","","","","","","","1","11","26","300","257","43","right","88","false","1669.0000000001164","3","yes","right","right","88","false","false","1177","","","","","","","",""
"","fixation","html-keyboard-response","298","735331","0.0-95.0-0.0","null","fixation","null","","-1","-1","","","","","","","","","","","","","","","","","","","","","","","","","","","","","","","","","","","",""
"","numerosity","html-keyboard-response","299","735848","0.0-95.0-1.0","null","[Dot display: left=300, right=255, diff=45]","null","","-1","-1","300","255","45","","","","","","","","","","","","","","","","","","","","","","","","","","","","","","","","",""
"","confidence_first","html-keyboard-response","300","737157","0.0-95.0-2.0","1305","Confidence judgement (first response)","","","-1","-1","","","","right","80.75","50","80.75","false","47","","","","","","","","","","","","","","","","","","","","","","","","","","",""
"","forced_advice_display","html-button-response","301","738158","0.0-95.0-4.0-0.0","999","forcedAdvice","0","","-1","-1","","","","","","","","","","","","","","","","","","","","","","","","","","","","","","","","","","","",""
"","show_advice","html-keyboard-response","302","738961","0.0-95.0-4.0-1.0","null","[advice: left]","null","","-1","-1","","","","","","","","","","","","","","","","","","","","","","","","","","","","","left","","","","","","",""
"","confidence_second","html-keyboard-response","303","741589","0.0-95.0-6.0","2622.9999999998836","Confidence judgment (second response)","","","-1","-1","","","","left","79","79","50","true","47","","","","","","","","","","","","","","","","","","","","","","","","","","",""
"","consolidated-trial-data","consolidated-trial-data","304","741592","0.0-96.0","null","consolidated-trial-data","null","","","","","","","","","","","","","","1","12","27","300","255","45","right","80.75","false","1305","2","yes","left","left","79","true","true","2622.9999999998836","","","","","","","",""
"","fixation","html-keyboard-response","305","742811","0.0-97.0-0.0","null","fixation","null","","-1","-1","","","","","","","","","","","","","","","","","","","","","","","","","","","","","","","","","","","",""
"","numerosity","html-keyboard-response","306","743328","0.0-97.0-1.0","null","[Dot display: left=253, right=300, diff=47]","null","","-1","-1","253","300","47","","","","","","","","","","","","","","","","","","","","","","","","","","","","","","","","",""
"","confidence_first","html-keyboard-response","307","745158","0.0-97.0-2.0","1825","Confidence judgement (first response)","","","-1","-1","","","","right","99.25","50","99.25","true","46","","","","","","","","","","","","","","","","","","","","","","","","","","",""
"","no_advice_display","html-button-response","308","745889","0.0-97.0-5.0-0.0","729","noAdvice","0","","-1","-1","","","","","","","","","","","","","","","","","","","","","","","","","","","","","","","","","","","",""
"","blank_screen","html-keyboard-response","309","746691","0.0-97.0-5.0-1.0","null","blank","null","","-1","-1","","","","","","","","","","","","","","","","","","","","","","","","","","","","","","","","","","","",""
"","confidence_second","html-keyboard-response","310","748123","0.0-97.0-6.0","1428","Confidence judgment (second response)","","","-1","-1","","","","right","99.25","50","99.25","true","46","","","","","","","","","","","","","","","","","","","","","","","","","","",""
"","consolidated-trial-data","consolidated-trial-data","311","748126","0.0-98.0","null","consolidated-trial-data","null","","","","","","","","","","","","","","1","13","28","253","300","47","right","99.25","true","1825","3","yes","left","right","99.25","false","true","1428","","","","","","","",""
"","fixation","html-keyboard-response","312","749393","0.0-99.0-0.0","null","fixation","null","","-1","-1","","","","","","","","","","","","","","","","","","","","","","","","","","","","","","","","","","","",""
"","numerosity","html-keyboard-response","313","749914","0.0-99.0-1.0","null","[Dot display: left=300, right=254, diff=46]","null","","-1","-1","300","254","46","","","","","","","","","","","","","","","","","","","","","","","","","","","","","","","","",""
"","confidence_first","html-keyboard-response","314","752058","0.0-99.0-2.0","2140","Confidence judgement (first response)","","","-1","-1","","","","left","99.25","99.25","50","true","46","","","","","","","","","","","","","","","","","","","","","","","","","","",""
"","forced_advice_display","html-button-response","315","753088","0.0-99.0-4.0-0.0","1028","forcedAdvice","0","","-1","-1","","","","","","","","","","","","","","","","","","","","","","","","","","","","","","","","","","","",""
"","show_advice","html-keyboard-response","316","753892","0.0-99.0-4.0-1.0","null","[advice: left]","null","","-1","-1","","","","","","","","","","","","","","","","","","","","","","","","","","","","","left","","","","","","",""
"","confidence_second","html-keyboard-response","317","754657","0.0-99.0-6.0","762.0000000001164","Confidence judgment (second response)","","","-1","-1","","","","left","99.25","99.25","50","true","46","","","","","","","","","","","","","","","","","","","","","","","","","","",""
"","consolidated-trial-data","consolidated-trial-data","318","754661","0.0-100.0","null","consolidated-trial-data","null","","","","","","","","","","","","","","1","14","29","300","254","46","left","99.25","true","2140","2","yes","left","left","99.25","true","true","762.0000000001164","","","","","","","",""
"","block_message","html-button-response","319","756241","0.0-101.0","1577","block message","0","","","","","","","","","","","","","3","","","","","","","","","","","","","","","","","","","","","","","","","",""
"","fixation","html-keyboard-response","320","757457","0.0-102.0-0.0","null","fixation","null","","-1","-1","","","","","","","","","","","","","","","","","","","","","","","","","","","","","","","","","","","",""
"","numerosity","html-keyboard-response","321","757978","0.0-102.0-1.0","null","[Dot display: left=254, right=300, diff=46]","null","","-1","-1","254","300","46","","","","","","","","","","","","","","","","","","","","","","","","","","","","","","","","",""
"","confidence_first","html-keyboard-response","322","761259","0.0-102.0-2.0","3276","Confidence judgement (first response)","","","-1","-1","","","","left","88.5","88.5","50","false","48","","","","","","","","","","","","","","","","","","","","","","","","","","",""
"","no_advice_display","html-button-response","323","762055","0.0-102.0-5.0-0.0","793","noAdvice","0","","-1","-1","","","","","","","","","","","","","","","","","","","","","","","","","","","","","","","","","","","",""
"","blank_screen","html-keyboard-response","324","762857","0.0-102.0-5.0-1.0","null","blank","null","","-1","-1","","","","","","","","","","","","","","","","","","","","","","","","","","","","","","","","","","","",""
"","confidence_second","html-keyboard-response","325","764008","0.0-102.0-6.0","1147","Confidence judgment (second response)","","","-1","-1","","","","left","88.5","88.5","50","false","48","","","","","","","","","","","","","","","","","","","","","","","","","","",""
"","consolidated-trial-data","consolidated-trial-data","326","764012","0.0-103.0","null","consolidated-trial-data","null","","","","","","","","","","","","","","2","0","30","254","300","46","left","88.5","false","3276","3","yes","left","left","88.5","false","false","1147","","","","","","","",""
"","fixation","html-keyboard-response","327","765341","0.0-104.0-0.0","null","fixation","null","","-1","-1","","","","","","","","","","","","","","","","","","","","","","","","","","","","","","","","","","","",""
"","numerosity","html-keyboard-response","328","765858","0.0-104.0-1.0","null","[Dot display: left=252, right=300, diff=48]","null","","-1","-1","252","300","48","","","","","","","","","","","","","","","","","","","","","","","","","","","","","","","","",""
"","confidence_first","html-keyboard-response","329","767342","0.0-104.0-2.0","1480","Confidence judgement (first response)","","","-1","-1","","","","right","88.75","50","88.75","true","47","","","","","","","","","","","","","","","","","","","","","","","","","","",""
"","advice_choice","html-button-response","330","768290","0.0-104.0-3.0-0.0","946","[advice choice Y,N]","0","","-1","-1","","","","","","","","","","","","","","","","","","","","","","","","","","","","","","","","","","","",""
"","show_advice","html-keyboard-response","331","769093","0.0-104.0-3.0-1.0-0.0","null","[advice: right]","null","","-1","-1","","","","","","","","","","","","","","","","","","","","","","","","","","","","","right","","","","","","",""
"","confidence_second","html-keyboard-response","332","770592","0.0-104.0-6.0","1494","Confidence judgment (second response)","","","-1","-1","","","","right","88.75","50","88.75","true","47","","","","","","","","","","","","","","","","","","","","","","","","","","",""
"","consolidated-trial-data","consolidated-trial-data","333","770595","0.0-105.0","null","consolidated-trial-data","null","","","","","","","","","","","","","","2","1","31","252","300","48","right","88.75","true","1480","1","yes","right","right","88.75","true","true","1494","","","","","","","",""
"","fixation","html-keyboard-response","334","771916","0.0-106.0-0.0","null","fixation","null","","-1","-1","","","","","","","","","","","","","","","","","","","","","","","","","","","","","","","","","","","",""
"","numerosity","html-keyboard-response","335","772434","0.0-106.0-1.0","null","[Dot display: left=300, right=253, diff=47]","null","","-1","-1","300","253","47","","","","","","","","","","","","","","","","","","","","","","","","","","","","","","","","",""
"","confidence_first","html-keyboard-response","336","775160","0.0-106.0-2.0","2721","Confidence judgement (first response)","","","-1","-1","","","","left","96.75","96.75","50","true","47","","","","","","","","","","","","","","","","","","","","","","","","","","",""
"","forced_advice_display","html-button-response","337","776029","0.0-106.0-4.0-0.0","866","forcedAdvice","0","","-1","-1","","","","","","","","","","","","","","","","","","","","","","","","","","","","","","","","","","","",""
"","show_advice","html-keyboard-response","338","776833","0.0-106.0-4.0-1.0","null","[advice: left]","null","","-1","-1","","","","","","","","","","","","","","","","","","","","","","","","","","","","","left","","","","","","",""
"","confidence_second","html-keyboard-response","339","778742","0.0-106.0-6.0","1905","Confidence judgment (second response)","","","-1","-1","","","","left","96.75","96.75","50","true","47","","","","","","","","","","","","","","","","","","","","","","","","","","",""
"","consolidated-trial-data","consolidated-trial-data","340","778745","0.0-107.0","null","consolidated-trial-data","null","","","","","","","","","","","","","","2","2","32","300","253","47","left","96.75","true","2721","2","yes","left","left","96.75","true","true","1905","","","","","","","",""
"","fixation","html-keyboard-response","341","780071","0.0-108.0-0.0","null","fixation","null","","-1","-1","","","","","","","","","","","","","","","","","","","","","","","","","","","","","","","","","","","",""
"","numerosity","html-keyboard-response","342","780588","0.0-108.0-1.0","null","[Dot display: left=253, right=300, diff=47]","null","","-1","-1","253","300","47","","","","","","","","","","","","","","","","","","","","","","","","","","","","","","","","",""
"","confidence_first","html-keyboard-response","343","782142","0.0-108.0-2.0","1550","Confidence judgement (first response)","","","-1","-1","","","","right","98","50","98","true","46","","","","","","","","","","","","","","","","","","","","","","","","","","",""
"","advice_choice","html-button-response","344","783012","0.0-108.0-3.0-0.0","867","[advice choice Y,N]","0","","-1","-1","","","","","","","","","","","","","","","","","","","","","","","","","","","","","","","","","","","",""
"","show_advice","html-keyboard-response","345","783815","0.0-108.0-3.0-1.0-0.0","null","[advice: right]","null","","-1","-1","","","","","","","","","","","","","","","","","","","","","","","","","","","","","right","","","","","","",""
"","confidence_second","html-keyboard-response","346","785097","0.0-108.0-6.0","1278","Confidence judgment (second response)","","","-1","-1","","","","right","98","50","98","true","46","","","","","","","","","","","","","","","","","","","","","","","","","","",""
"","consolidated-trial-data","consolidated-trial-data","347","785100","0.0-109.0","null","consolidated-trial-data","null","","","","","","","","","","","","","","2","3","33","253","300","47","right","98","true","1550","1","yes","right","right","98","true","true","1278","","","","","","","",""
"","attncheck","html-button-response","348","786659","0.0-110.0","1557","attncheck","2","","","","","","","","","","","","","","","","","","","","","","","","","","","","","","","","","true","Next","","","","",""
"","fixation","html-keyboard-response","349","787922","0.0-111.0-0.0","null","fixation","null","","-1","-1","","","","","","","","","","","","","","","","","","","","","","","","","","","","","","","","","","","",""
"","numerosity","html-keyboard-response","350","788438","0.0-111.0-1.0","null","[Dot display: left=254, right=300, diff=46]","null","","-1","-1","254","300","46","","","","","","","","","","","","","","","","","","","","","","","","","","","","","","","","",""
"","confidence_first","html-keyboard-response","351","789794","0.0-111.0-2.0","1351","Confidence judgement (first response)","","","-1","-1","","","","right","83.75","50","83.75","true","46","","","","","","","","","","","","","","","","","","","","","","","","","","",""
"","forced_advice_display","html-button-response","352","790376","0.0-111.0-4.0-0.0","580","forcedAdvice","0","","-1","-1","","","","","","","","","","","","","","","","","","","","","","","","","","","","","","","","","","","",""
"","show_advice","html-keyboard-response","353","791180","0.0-111.0-4.0-1.0","null","[advice: left]","null","","-1","-1","","","","","","","","","","","","","","","","","","","","","","","","","","","","","left","","","","","","",""
"","confidence_second","html-keyboard-response","354","793649","0.0-111.0-6.0","2464","Confidence judgment (second response)","","","-1","-1","","","","left","51","51","50","false","46","","","","","","","","","","","","","","","","","","","","","","","","","","",""
"","consolidated-trial-data","consolidated-trial-data","355","793652","0.0-112.0","null","consolidated-trial-data","null","","","","","","","","","","","","","","2","4","34","254","300","46","right","83.75","true","1351","2","yes","left","left","51","false","false","2464","","","","","","","",""
"","fixation","html-keyboard-response","356","794959","0.0-113.0-0.0","null","fixation","null","","-1","-1","","","","","","","","","","","","","","","","","","","","","","","","","","","","","","","","","","","",""
"","numerosity","html-keyboard-response","357","795476","0.0-113.0-1.0","null","[Dot display: left=254, right=300, diff=46]","null","","-1","-1","254","300","46","","","","","","","","","","","","","","","","","","","","","","","","","","","","","","","","",""
"","confidence_first","html-keyboard-response","358","796736","0.0-113.0-2.0","1255.9999999998836","Confidence judgement (first response)","","","-1","-1","","","","right","81.25","50","81.25","true","46","","","","","","","","","","","","","","","","","","","","","","","","","","",""
"","advice_choice","html-button-response","359","797607","0.0-113.0-3.0-0.0","868","[advice choice Y,N]","0","","-1","-1","","","","","","","","","","","","","","","","","","","","","","","","","","","","","","","","","","","",""
"","show_advice","html-keyboard-response","360","798410","0.0-113.0-3.0-1.0-0.0","null","[advice: left]","null","","-1","-1","","","","","","","","","","","","","","","","","","","","","","","","","","","","","left","","","","","","",""
"","confidence_second","html-keyboard-response","361","799854","0.0-113.0-6.0","1441.0000000001164","Confidence judgment (second response)","","","-1","-1","","","","left","78.75","78.75","50","false","46","","","","","","","","","","","","","","","","","","","","","","","","","","",""
"","consolidated-trial-data","consolidated-trial-data","362","799857","0.0-114.0","null","consolidated-trial-data","null","","","","","","","","","","","","","","2","5","35","254","300","46","right","81.25","true","1255.9999999998836","1","yes","left","left","78.75","false","false","1441.0000000001164","","","","","","","",""
"","fixation","html-keyboard-response","363","801125","0.0-115.0-0.0","null","fixation","null","","-1","-1","","","","","","","","","","","","","","","","","","","","","","","","","","","","","","","","","","","",""
"","numerosity","html-keyboard-response","364","801643","0.0-115.0-1.0","null","[Dot display: left=254, right=300, diff=46]","null","","-1","-1","254","300","46","","","","","","","","","","","","","","","","","","","","","","","","","","","","","","","","",""
"","confidence_first","html-keyboard-response","365","803419","0.0-115.0-2.0","1773","Confidence judgement (first response)","","","-1","-1","","","","right","88","50","88","true","45","","","","","","","","","","","","","","","","","","","","","","","","","","",""
"","no_advice_display","html-button-response","366","804056","0.0-115.0-5.0-0.0","636","noAdvice","0","","-1","-1","","","","","","","","","","","","","","","","","","","","","","","","","","","","","","","","","","","",""
"","blank_screen","html-keyboard-response","367","804859","0.0-115.0-5.0-1.0","null","blank","null","","-1","-1","","","","","","","","","","","","","","","","","","","","","","","","","","","","","","","","","","","",""
"","confidence_second","html-keyboard-response","368","806723","0.0-115.0-6.0","1859","Confidence judgment (second response)","","","-1","-1","","","","right","88","50","88","true","45","","","","","","","","","","","","","","","","","","","","","","","","","","",""
"","consolidated-trial-data","consolidated-trial-data","369","806727","0.0-116.0","null","consolidated-trial-data","null","","","","","","","","","","","","","","2","6","36","254","300","46","right","88","true","1773","3","yes","left","right","88","false","true","1859","","","","","","","",""
"","fixation","html-keyboard-response","370","808117","0.0-117.0-0.0","null","fixation","null","","-1","-1","","","","","","","","","","","","","","","","","","","","","","","","","","","","","","","","","","","",""
"","numerosity","html-keyboard-response","371","808633","0.0-117.0-1.0","null","[Dot display: left=255, right=300, diff=45]","null","","-1","-1","255","300","45","","","","","","","","","","","","","","","","","","","","","","","","","","","","","","","","",""
"","confidence_first","html-keyboard-response","372","810108","0.0-117.0-2.0","1470","Confidence judgement (first response)","","","-1","-1","","","","right","90","50","90","true","45","","","","","","","","","","","","","","","","","","","","","","","","","","",""
"","forced_advice_display","html-button-response","373","810723","0.0-117.0-4.0-0.0","613","forcedAdvice","0","","-1","-1","","","","","","","","","","","","","","","","","","","","","","","","","","","","","","","","","","","",""
"","show_advice","html-keyboard-response","374","811527","0.0-117.0-4.0-1.0","null","[advice: right]","null","","-1","-1","","","","","","","","","","","","","","","","","","","","","","","","","","","","","right","","","","","","",""
"","confidence_second","html-keyboard-response","375","812507","0.0-117.0-6.0","975","Confidence judgment (second response)","","","-1","-1","","","","right","90","50","90","true","45","","","","","","","","","","","","","","","","","","","","","","","","","","",""
"","consolidated-trial-data","consolidated-trial-data","376","812510","0.0-118.0","null","consolidated-trial-data","null","","","","","","","","","","","","","","2","7","37","255","300","45","right","90","true","1470","2","yes","right","right","90","true","true","975","","","","","","","",""
"","fixation","html-keyboard-response","377","813866","0.0-119.0-0.0","null","fixation","null","","-1","-1","","","","","","","","","","","","","","","","","","","","","","","","","","","","","","","","","","","",""
"","numerosity","html-keyboard-response","378","814384","0.0-119.0-1.0","null","[Dot display: left=255, right=300, diff=45]","null","","-1","-1","255","300","45","","","","","","","","","","","","","","","","","","","","","","","","","","","","","","","","",""
"","confidence_first","html-keyboard-response","379","816509","0.0-119.0-2.0","2117","Confidence judgement (first response)","","","-1","-1","","","","right","88","50","88","true","45","","","","","","","","","","","","","","","","","","","","","","","","","","",""
"","advice_choice","html-button-response","380","817524","0.0-119.0-3.0-0.0","1012","[advice choice Y,N]","0","","-1","-1","","","","","","","","","","","","","","","","","","","","","","","","","","","","","","","","","","","",""
"","show_advice","html-keyboard-response","381","818328","0.0-119.0-3.0-1.0-0.0","null","[advice: left]","null","","-1","-1","","","","","","","","","","","","","","","","","","","","","","","","","","","","","left","","","","","","",""
"","confidence_second","html-keyboard-response","382","820158","0.0-119.0-6.0","1825.0000000001164","Confidence judgment (second response)","","","-1","-1","","","","left","54.75","54.75","50","false","45","","","","","","","","","","","","","","","","","","","","","","","","","","",""
"","consolidated-trial-data","consolidated-trial-data","383","820162","0.0-120.0","null","consolidated-trial-data","null","","","","","","","","","","","","","","2","8","38","255","300","45","right","88","true","2117","1","yes","left","left","54.75","false","false","1825.0000000001164","","","","","","","",""
"","fixation","html-keyboard-response","384","821603","0.0-121.0-0.0","null","fixation","null","","-1","-1","","","","","","","","","","","","","","","","","","","","","","","","","","","","","","","","","","","",""
"","numerosity","html-keyboard-response","385","822122","0.0-121.0-1.0","null","[Dot display: left=255, right=300, diff=45]","null","","-1","-1","255","300","45","","","","","","","","","","","","","","","","","","","","","","","","","","","","","","","","",""
"","confidence_first","html-keyboard-response","386","823879","0.0-121.0-2.0","1752","Confidence judgement (first response)","","","-1","-1","","","","right","98.5","50","98.5","true","44","","","","","","","","","","","","","","","","","","","","","","","","","","",""
"","no_advice_display","html-button-response","387","824641","0.0-121.0-5.0-0.0","758","noAdvice","0","","-1","-1","","","","","","","","","","","","","","","","","","","","","","","","","","","","","","","","","","","",""
"","blank_screen","html-keyboard-response","388","825443","0.0-121.0-5.0-1.0","null","blank","null","","-1","-1","","","","","","","","","","","","","","","","","","","","","","","","","","","","","","","","","","","",""
"","confidence_second","html-keyboard-response","389","826842","0.0-121.0-6.0","1395","Confidence judgment (second response)","","","-1","-1","","","","right","98.5","50","98.5","true","44","","","","","","","","","","","","","","","","","","","","","","","","","","",""
"","consolidated-trial-data","consolidated-trial-data","390","826846","0.0-122.0","null","consolidated-trial-data","null","","","","","","","","","","","","","","2","9","39","255","300","45","right","98.5","true","1752","3","yes","left","right","98.5","false","true","1395","","","","","","","",""
"","fixation","html-keyboard-response","391","828106","0.0-123.0-0.0","null","fixation","null","","-1","-1","","","","","","","","","","","","","","","","","","","","","","","","","","","","","","","","","","","",""
"","numerosity","html-keyboard-response","392","828623","0.0-123.0-1.0","null","[Dot display: left=300, right=256, diff=44]","null","","-1","-1","300","256","44","","","","","","","","","","","","","","","","","","","","","","","","","","","","","","","","",""
