"rt","stimulus","response","task","trial_type","trial_index","time_elapsed","internal_node_id","participant_age","participant_gender","pixels_per_unit","itrial","iblock","leftDots","rightDots","difference","selected_side","confidence_value","left_confidence","right_confidence","correct","threshold","block_num","advice_direction","block","trial","trialid","dotsLeft","dotsRight","dotsDiff","selectedSide_first","confidence_first","adviceCond","adviceChoice","adviceDir","selectedSide_second","confidence_second","adviceCorrect","attention_check_correct","target_button","top_prompt","bottom_prompt","top_response","bottom_response"
"1614","welcome_msg","0","welcome","html-button-response","0","1618","0.0-0.0","30","female","","","","","","","","","","","","","","","","","","","","","","","","","","","","","","","","","",""
"4044","PISdoc","0","PISdoc","html-button-response","1","5667","0.0-1.0","30","female","","","","","","","","","","","","","","","","","","","","","","","","","","","","","","","","","",""
"5581","","{""age"":""30"",""gender"":""female""}","demographics","survey-html-form","2","11251","0.0-2.0","30","female","","","","","","","","","","","","","","","","","","","","","","","","","","","","","","","","","",""
"40465","","{""felt_panic"":0,""no_initiative"":1,""felt_blue"":1,""was_intolerant"":0,""nothing_forward"":0,""felt_scared"":0,""over_react"":1,""felt_worry"":0,""no_relax"":0,""no_positive"":1,""felt_annoyed"":0,""EOL_thoughts"":0}","dass10","survey-likert","3","51720","0.0-3.0","30","female","","","","","","","","","","","","","","","","","","","","","","","","","","","","","","","","","",""
"2895","pracInstruc","0","pracInstructions","html-button-response","4","54618","0.0-4.0-0.0","30","female","","","","","","","","","","","","","","","","","","","","","","","","","","","","","","","","","",""
"3564","pracInstruc","0","pracInstructions","html-button-response","5","58184","0.0-4.0-0.1","30","female","","","","","","","","","","","","","","","","","","","","","","","","","","","","","","","","","",""
"1182","pracInstruc","0","pracInstructions","html-button-response","6","59368","0.0-4.0-0.2","30","female","","","","","","","","","","","","","","","","","","","","","","","","","","","","","","","","","",""
"2430","pracInstruc","0","pracInstructions","html-button-response","7","61800","0.0-4.0-0.3","30","female","","","","","","","","","","","","","","","","","","","","","","","","","","","","","","","","","",""
"3532","pracInstruc","0","pracInstructions","html-button-response","8","65335","0.0-4.0-0.4","30","female","","","","","","","","","","","","","","","","","","","","","","","","","","","","","","","","","",""
"49133","<div style= ""font-size: 24px; color: white"">
                        
                            <p>First, Please hold a credit card up to your screen.</p>
                            <p>Adjust this box until it matches the size of the credit card.</p>
                            <div id=""calibration-box"" style=""
                                width: 506px;
                                height: 319px;
                                border: 2px solid white;
                                background-color: rgba(255,255,255,0.2);
                                margin: 20px auto;
                                resize: both;
                                overflow: hidden;
                            ""></div>
                        </div>
                    ","0","","html-button-response","9","114470","0.0-5.0","30","female","129","","","","","","","","","","","","","","","","","","","","","","","","","","","","","","","","",""
"null","fixation","null","fixation","html-keyboard-response","10","114828","0.0-6.0-0.0","30","female","","-1","-1","","","","","","","","","","","","","","","","","","","","","","","","","","","","","","",""
"null","[Dot display: left=300, right=250, diff=50]","null","numerosity","html-keyboard-response","11","115337","0.0-6.0-1.0","30","female","","-1","-1","300","250","50","","","","","","","","","","","","","","","","","","","","","","","","","","","",""
"3962.5","Confidence judgement (first response)","","confidence_first","html-keyboard-response","12","119304","0.0-6.0-2.0","30","female","","-1","-1","","","","left","60","60","50","true","19","","","","","","","","","","","","","","","","","","","","","",""
"null","fixation","null","fixation","html-keyboard-response","13","119767","0.0-6.0-0.1","30","female","","-1","-1","","","","","","","","","","","","","","","","","","","","","","","","","","","","","","",""
"null","[Dot display: left=300, right=250, diff=50]","null","numerosity","html-keyboard-response","14","120274","0.0-6.0-1.1","30","female","","-1","-1","300","250","50","","","","","","","","","","","","","","","","","","","","","","","","","","","",""
"3642.9000000003725","Confidence judgement (first response)","","confidence_first","html-keyboard-response","15","123920","0.0-6.0-2.1","30","female","","-1","-1","","","","left","57.75","57.75","50","true","19","","","","","","","","","","","","","","","","","","","","","",""
"null","fixation","null","fixation","html-keyboard-response","16","124310","0.0-6.0-0.2","30","female","","-1","-1","","","","","","","","","","","","","","","","","","","","","","","","","","","","","","",""
"null","[Dot display: left=300, right=250, diff=50]","null","numerosity","html-keyboard-response","17","124820","0.0-6.0-1.2","30","female","","-1","-1","300","250","50","","","","","","","","","","","","","","","","","","","","","","","","","","","",""
"2596.7999999988824","Confidence judgement (first response)","","confidence_first","html-keyboard-response","18","127420","0.0-6.0-2.2","30","female","","-1","-1","","","","right","52","50","52","false","35","","","","","","","","","","","","","","","","","","","","","",""
"null","fixation","null","fixation","html-keyboard-response","19","127913","0.0-6.0-0.3","30","female","","-1","-1","","","","","","","","","","","","","","","","","","","","","","","","","","","","","","",""
"null","[Dot display: left=265, right=300, diff=35]","null","numerosity","html-keyboard-response","20","128419","0.0-6.0-1.3","30","female","","-1","-1","265","300","35","","","","","","","","","","","","","","","","","","","","","","","","","","","",""
"2598.39999999851","Confidence judgement (first response)","","confidence_first","html-keyboard-response","21","131020","0.0-6.0-2.3","30","female","","-1","-1","","","","right","88","50","88","true","31","","","","","","","","","","","","","","","","","","","","","",""
"null","fixation","null","fixation","html-keyboard-response","22","131281","0.0-6.0-0.4","30","female","","-1","-1","","","","","","","","","","","","","","","","","","","","","","","","","","","","","","",""
"null","[Dot display: left=300, right=269, diff=31]","null","numerosity","html-keyboard-response","23","131790","0.0-6.0-1.4","30","female","","-1","-1","300","269","31","","","","","","","","","","","","","","","","","","","","","","","","","","","",""
"3227","Confidence judgement (first response)","","confidence_first","html-keyboard-response","24","135020","0.0-6.0-2.4","30","female","","-1","-1","","","","right","69.5","50","69.5","false","46","","","","","","","","","","","","","","","","","","","","","",""
"null","fixation","null","fixation","html-keyboard-response","25","135341","0.0-6.0-0.5","30","female","","-1","-1","","","","","","","","","","","","","","","","","","","","","","","","","","","","","","",""
"null","[Dot display: left=300, right=254, diff=46]","null","numerosity","html-keyboard-response","26","135849","0.0-6.0-1.5","30","female","","-1","-1","300","254","46","","","","","","","","","","","","","","","","","","","","","","","","","","","",""
"3218.5999999996275","Confidence judgement (first response)","","confidence_first","html-keyboard-response","27","139070","0.0-6.0-2.5","30","female","","-1","-1","","","","left","52.75","52.75","50","true","45","","","","","","","","","","","","","","","","","","","","","",""
"null","fixation","null","fixation","html-keyboard-response","28","139308","0.0-6.0-0.6","30","female","","-1","-1","","","","","","","","","","","","","","","","","","","","","","","","","","","","","","",""
"null","[Dot display: left=255, right=300, diff=45]","null","numerosity","html-keyboard-response","29","139816","0.0-6.0-1.6","30","female","","-1","-1","255","300","45","","","","","","","","","","","","","","","","","","","","","","","","","","","",""
"7151.4000000003725","Confidence judgement (first response)","","confidence_first","html-keyboard-response","30","146970","0.0-6.0-2.6","30","female","","-1","-1","","","","right","54.5","50","54.5","true","43","","","","","","","","","","","","","","","","","","","","","",""
"null","fixation","null","fixation","html-keyboard-response","31","147416","0.0-6.0-0.7","30","female","","-1","-1","","","","","","","","","","","","","","","","","","","","","","","","","","","","","","",""
"null","[Dot display: left=300, right=257, diff=43]","null","numerosity","html-keyboard-response","32","147925","0.0-6.0-1.7","30","female","","-1","-1","300","257","43","","","","","","","","","","","","","","","","","","","","","","","","","","","",""
"1926.2000000011176","Confidence judgement (first response)","","confidence_first","html-keyboard-response","33","149855","0.0-6.0-2.7","30","female","","-1","-1","","","","left","58.25","58.25","50","true","42","","","","","","","","","","","","","","","","","","","","","",""
"null","fixation","null","fixation","html-keyboard-response","34","150262","0.0-6.0-0.8","30","female","","-1","-1","","","","","","","","","","","","","","","","","","","","","","","","","","","","","","",""
"null","[Dot display: left=258, right=300, diff=42]","null","numerosity","html-keyboard-response","35","150769","0.0-6.0-1.8","30","female","","-1","-1","258","300","42","","","","","","","","","","","","","","","","","","","","","","","","","","","",""
"2431.2999999988824","Confidence judgement (first response)","","confidence_first","html-keyboard-response","36","153204","0.0-6.0-2.8","30","female","","-1","-1","","","","right","84.25","50","84.25","true","41","","","","","","","","","","","","","","","","","","","","","",""
"null","fixation","null","fixation","html-keyboard-response","37","153497","0.0-6.0-0.9","30","female","","-1","-1","","","","","","","","","","","","","","","","","","","","","","","","","","","","","","",""
"null","[Dot display: left=300, right=259, diff=41]","null","numerosity","html-keyboard-response","38","154004","0.0-6.0-1.9","30","female","","-1","-1","300","259","41","","","","","","","","","","","","","","","","","","","","","","","","","","","",""
"3097.199999999255","Confidence judgement (first response)","","confidence_first","html-keyboard-response","39","157104","0.0-6.0-2.9","30","female","","-1","-1","","","","left","59.5","59.5","50","true","39","","","","","","","","","","","","","","","","","","","","","",""
"null","fixation","null","fixation","html-keyboard-response","40","157533","0.0-6.0-0.10","30","female","","-1","-1","","","","","","","","","","","","","","","","","","","","","","","","","","","","","","",""
"null","[Dot display: left=300, right=261, diff=39]","null","numerosity","html-keyboard-response","41","158043","0.0-6.0-1.10","30","female","","-1","-1","300","261","39","","","","","","","","","","","","","","","","","","","","","","","","","","","",""
"3225.0999999996275","Confidence judgement (first response)","","confidence_first","html-keyboard-response","42","161271","0.0-6.0-2.10","30","female","","-1","-1","","","","left","86.75","86.75","50","true","38","","","","","","","","","","","","","","","","","","","","","",""
"null","fixation","null","fixation","html-keyboard-response","43","161679","0.0-6.0-0.11","30","female","","-1","-1","","","","","","","","","","","","","","","","","","","","","","","","","","","","","","",""
"null","[Dot display: left=262, right=300, diff=38]","null","numerosity","html-keyboard-response","44","162187","0.0-6.0-1.11","30","female","","-1","-1","262","300","38","","","","","","","","","","","","","","","","","","","","","","","","","","","",""
"2998","Confidence judgement (first response)","","confidence_first","html-keyboard-response","45","165188","0.0-6.0-2.11","30","female","","-1","-1","","","","right","79","50","79","true","36","","","","","","","","","","","","","","","","","","","","","",""
"null","fixation","null","fixation","html-keyboard-response","46","165616","0.0-6.0-0.12","30","female","","-1","-1","","","","","","","","","","","","","","","","","","","","","","","","","","","","","","",""
"null","[Dot display: left=300, right=264, diff=36]","null","numerosity","html-keyboard-response","47","166125","0.0-6.0-1.12","30","female","","-1","-1","300","264","36","","","","","","","","","","","","","","","","","","","","","","","","","","","",""
"2159.9000000003725","Confidence judgement (first response)","","confidence_first","html-keyboard-response","48","168288","0.0-6.0-2.12","30","female","","-1","-1","","","","left","71.25","71.25","50","true","35","","","","","","","","","","","","","","","","","","","","","",""
"null","fixation","null","fixation","html-keyboard-response","49","168512","0.0-6.0-0.13","30","female","","-1","-1","","","","","","","","","","","","","","","","","","","","","","","","","","","","","","",""
"null","[Dot display: left=265, right=300, diff=35]","null","numerosity","html-keyboard-response","50","169020","0.0-6.0-1.13","30","female","","-1","-1","265","300","35","","","","","","","","","","","","","","","","","","","","","","","","","","","",""
"2230.9000000003725","Confidence judgement (first response)","","confidence_first","html-keyboard-response","51","171253","0.0-6.0-2.13","30","female","","-1","-1","","","","right","75.5","50","75.5","true","33","","","","","","","","","","","","","","","","","","","","","",""
"null","fixation","null","fixation","html-keyboard-response","52","171551","0.0-6.0-0.14","30","female","","-1","-1","","","","","","","","","","","","","","","","","","","","","","","","","","","","","","",""
"null","[Dot display: left=300, right=267, diff=33]","null","numerosity","html-keyboard-response","53","172059","0.0-6.0-1.14","30","female","","-1","-1","300","267","33","","","","","","","","","","","","","","","","","","","","","","","","","","","",""
"3092.7999999988824","Confidence judgement (first response)","","confidence_first","html-keyboard-response","54","175154","0.0-6.0-2.14","30","female","","-1","-1","","","","right","50.75","50","50.75","false","40","","","","","","","","","","","","","","","","","","","","","",""
"null","fixation","null","fixation","html-keyboard-response","55","175439","0.0-6.0-0.15","30","female","","-1","-1","","","","","","","","","","","","","","","","","","","","","","","","","","","","","","",""
"null","[Dot display: left=260, right=300, diff=40]","null","numerosity","html-keyboard-response","56","175947","0.0-6.0-1.15","30","female","","-1","-1","260","300","40","","","","","","","","","","","","","","","","","","","","","","","","","","","",""
"2554.699999999255","Confidence judgement (first response)","","confidence_first","html-keyboard-response","57","178505","0.0-6.0-2.15","30","female","","-1","-1","","","","left","52.5","52.5","50","false","44","","","","","","","","","","","","","","","","","","","","","",""
"null","fixation","null","fixation","html-keyboard-response","58","178806","0.0-6.0-0.16","30","female","","-1","-1","","","","","","","","","","","","","","","","","","","","","","","","","","","","","","",""
"null","[Dot display: left=256, right=300, diff=44]","null","numerosity","html-keyboard-response","59","179314","0.0-6.0-1.16","30","female","","-1","-1","256","300","44","","","","","","","","","","","","","","","","","","","","","","","","","","","",""
"2870.9000000003725","Confidence judgement (first response)","","confidence_first","html-keyboard-response","60","182188","0.0-6.0-2.16","30","female","","-1","-1","","","","left","64.75","64.75","50","false","47","","","","","","","","","","","","","","","","","","","","","",""
"null","fixation","null","fixation","html-keyboard-response","61","182516","0.0-6.0-0.17","30","female","","-1","-1","","","","","","","","","","","","","","","","","","","","","","","","","","","","","","",""
"null","[Dot display: left=253, right=300, diff=47]","null","numerosity","html-keyboard-response","62","183023","0.0-6.0-1.17","30","female","","-1","-1","253","300","47","","","","","","","","","","","","","","","","","","","","","","","","","","","",""
"2228.5","Confidence judgement (first response)","","confidence_first","html-keyboard-response","63","185255","0.0-6.0-2.17","30","female","","-1","-1","","","","right","93.25","50","93.25","true","46","","","","","","","","","","","","","","","","","","","","","",""
"null","fixation","null","fixation","html-keyboard-response","64","185522","0.0-6.0-0.18","30","female","","-1","-1","","","","","","","","","","","","","","","","","","","","","","","","","","","","","","",""
"null","[Dot display: left=254, right=300, diff=46]","null","numerosity","html-keyboard-response","65","186030","0.0-6.0-1.18","30","female","","-1","-1","254","300","46","","","","","","","","","","","","","","","","","","","","","","","","","","","",""
"1855.3999999985099","Confidence judgement (first response)","","confidence_first","html-keyboard-response","66","187889","0.0-6.0-2.18","30","female","","-1","-1","","","","right","62.75","50","62.75","true","46","","","","","","","","","","","","","","","","","","","","","",""
"null","fixation","null","fixation","html-keyboard-response","67","188368","0.0-6.0-0.19","30","female","","-1","-1","","","","","","","","","","","","","","","","","","","","","","","","","","","","","","",""
"null","[Dot display: left=300, right=254, diff=46]","null","numerosity","html-keyboard-response","68","188874","0.0-6.0-1.19","30","female","","-1","-1","300","254","46","","","","","","","","","","","","","","","","","","","","","","","","","","","",""
"3444.800000000745","Confidence judgement (first response)","","confidence_first","html-keyboard-response","69","192322","0.0-6.0-2.19","30","female","","-1","-1","","","","left","50.5","50.5","50","true","45","","","","","","","","","","","","","","","","","","","","","",""
"null","fixation","null","fixation","html-keyboard-response","70","192594","0.0-6.0-0.20","30","female","","-1","-1","","","","","","","","","","","","","","","","","","","","","","","","","","","","","","",""
"null","[Dot display: left=255, right=300, diff=45]","null","numerosity","html-keyboard-response","71","193101","0.0-6.0-1.20","30","female","","-1","-1","255","300","45","","","","","","","","","","","","","","","","","","","","","","","","","","","",""
"3118.4000000003725","Confidence judgement (first response)","","confidence_first","html-keyboard-response","72","196222","0.0-6.0-2.20","30","female","","-1","-1","","","","right","66.5","50","66.5","true","44","","","","","","","","","","","","","","","","","","","","","",""
"null","fixation","null","fixation","html-keyboard-response","73","196513","0.0-6.0-0.21","30","female","","-1","-1","","","","","","","","","","","","","","","","","","","","","","","","","","","","","","",""
"null","[Dot display: left=300, right=256, diff=44]","null","numerosity","html-keyboard-response","74","197022","0.0-6.0-1.21","30","female","","-1","-1","300","256","44","","","","","","","","","","","","","","","","","","","","","","","","","","","",""
"2464.2000000011176","Confidence judgement (first response)","","confidence_first","html-keyboard-response","75","199489","0.0-6.0-2.21","30","female","","-1","-1","","","","right","53.25","50","53.25","false","47","","","","","","","","","","","","","","","","","","","","","",""
"null","fixation","null","fixation","html-keyboard-response","76","199835","0.0-6.0-0.22","30","female","","-1","-1","","","","","","","","","","","","","","","","","","","","","","","","","","","","","","",""
"null","[Dot display: left=253, right=300, diff=47]","null","numerosity","html-keyboard-response","77","200343","0.0-6.0-1.22","30","female","","-1","-1","253","300","47","","","","","","","","","","","","","","","","","","","","","","","","","","","",""
"2176.4000000003725","Confidence judgement (first response)","","confidence_first","html-keyboard-response","78","202522","0.0-6.0-2.22","30","female","","-1","-1","","","","right","52.25","50","52.25","true","46","","","","","","","","","","","","","","","","","","","","","",""
"null","fixation","null","fixation","html-keyboard-response","79","202840","0.0-6.0-0.23","30","female","","-1","-1","","","","","","","","","","","","","","","","","","","","","","","","","","","","","","",""
"null","[Dot display: left=254, right=300, diff=46]","null","numerosity","html-keyboard-response","80","203348","0.0-6.0-1.23","30","female","","-1","-1","254","300","46","","","","","","","","","","","","","","","","","","","","","","","","","","","",""
"2105.300000000745","Confidence judgement (first response)","","confidence_first","html-keyboard-response","81","205456","0.0-6.0-2.23","30","female","","-1","-1","","","","right","52.75","50","52.75","true","46","","","","","","","","","","","","","","","","","","","","","",""
"null","fixation","null","fixation","html-keyboard-response","82","205796","0.0-6.0-0.24","30","female","","-1","-1","","","","","","","","","","","","","","","","","","","","","","","","","","","","","","",""
"null","[Dot display: left=254, right=300, diff=46]","null","numerosity","html-keyboard-response","83","206304","0.0-6.0-1.24","30","female","","-1","-1","254","300","46","","","","","","","","","","","","","","","","","","","","","","","","","","","",""
"1898.7000000011176","Confidence judgement (first response)","","confidence_first","html-keyboard-response","84","208206","0.0-6.0-2.24","30","female","","-1","-1","","","","right","76.75","50","76.75","true","45","","","","","","","","","","","","","","","","","","","","","",""
"11598","expInstruc","0","expInstructions","html-button-response","85","219807","0.0-7.0-0.0","30","female","","","","","","","","","","","","","","","","","","","","","","","","","","","","","","","","","",""
"13413","expInstruc","0","expInstructions","html-button-response","86","233222","0.0-7.0-0.1","30","female","","","","","","","","","","","","","","","","","","","","","","","","","","","","","","","","","",""
"10900","expInstruc","0","expInstructions","html-button-response","87","244123","0.0-7.0-0.2","30","female","","","","","","","","","","","","","","","","","","","","","","","","","","","","","","","","","",""
"5865","expInstruc","0","expInstructions","html-button-response","88","249990","0.0-7.0-0.3","30","female","","","","","","","","","","","","","","","","","","","","","","","","","","","","","","","","","",""
"3348","expInstruc","0","expInstructions","html-button-response","89","253340","0.0-7.0-0.4","30","female","","","","","","","","","","","","","","","","","","","","","","","","","","","","","","","","","",""
"3048","expInstruc","0","expInstructions","html-button-response","90","256391","0.0-7.0-0.5","30","female","","","","","","","","","","","","","","","","","","","","","","","","","","","","","","","","","",""
"4498","expInstruc","0","expInstructions","html-button-response","91","260891","0.0-7.0-0.6","30","female","","","","","","","","","","","","","","","","","","","","","","","","","","","","","","","","","",""
"5497","expInstruc","0","expInstructions","html-button-response","92","266390","0.0-7.0-0.7","30","female","","","","","","","","","","","","","","","","","","","","","","","","","","","","","","","","","",""
"6881","expInstruc","0","expInstructions","html-button-response","93","273273","0.0-7.0-0.8","30","female","","","","","","","","","","","","","","","","","","","","","","","","","","","","","","","","","",""
"3382","expInstruc","0","expInstructions","html-button-response","94","276657","0.0-7.0-0.9","30","female","","","","","","","","","","","","","","","","","","","","","","","","","","","","","","","","","",""
"12849","expInstruc","0","expInstructions","html-button-response","95","289508","0.0-7.0-0.10","30","female","","","","","","","","","","","","","","","","","","","","","","","","","","","","","","","","","",""
"1431","expInstruc","0","expInstructions","html-button-response","96","290941","0.0-7.0-0.11","30","female","","","","","","","","","","","","","","","","","","","","","","","","","","","","","","","","","",""
"3931","block message","0","block_message","html-button-response","97","294874","0.0-8.0","30","female","","","","","","","","","","","","","1","","","","","","","","","","","","","","","","","","","","",""
"null","fixation","null","fixation","html-keyboard-response","98","295194","0.0-9.0-0.0","30","female","","-1","-1","","","","","","","","","","","","","","","","","","","","","","","","","","","","","","",""
"null","[Dot display: left=255, right=300, diff=45]","null","numerosity","html-keyboard-response","99","295702","0.0-9.0-1.0","30","female","","-1","-1","255","300","45","","","","","","","","","","","","","","","","","","","","","","","","","","","",""
"2870.4000000003725","Confidence judgement (first response)","","confidence_first","html-keyboard-response","100","298575","0.0-9.0-2.0","30","female","","-1","-1","","","","right","56.25","50","56.25","true","45","","","","","","","","","","","","","","","","","","","","","",""
"1330","[advice choice Y,N]","0","advice_choice","html-button-response","101","299908","0.0-9.0-3.0-0.0","30","female","","-1","-1","","","","","","","","","","","","","","","","","","","","","","","","","","","","","","",""
"null","[advice: right]","null","show_advice","html-keyboard-response","102","300712","0.0-9.0-3.0-1.0-0.0","30","female","","-1","-1","","","","","","","","","","","right","","","","","","","","","","","","","","","","","","","",""
"10026","Confidence judgment (second response)","","confidence_second","html-keyboard-response","103","310743","0.0-9.0-6.0","30","female","","-1","-1","","","","right","56.25","50","56.25","true","44","","","","","","","","","","","","","","","","","","","","","",""
"null","consolidated-trial-data","null","consolidated-trial-data","consolidated-trial-data","104","310745","0.0-10.0","30","female","","","","","","","","","","","","","","","0","0","0","255","300","45","right","56.25","1","yes","right","right","56.25","true","","","","","",""
"null","fixation","null","fixation","html-keyboard-response","105","311201","0.0-11.0-0.0","30","female","","-1","-1","","","","","","","","","","","","","","","","","","","","","","","","","","","","","","",""
"null","[Dot display: left=256, right=300, diff=44]","null","numerosity","html-keyboard-response","106","311709","0.0-11.0-1.0","30","female","","-1","-1","256","300","44","","","","","","","","","","","","","","","","","","","","","","","","","","","",""
"2947.2999999988824","Confidence judgement (first response)","","confidence_first","html-keyboard-response","107","314659","0.0-11.0-2.0","30","female","","-1","-1","","","","left","62.75","62.75","50","false","46","","","","","","","","","","","","","","","","","","","","","",""
"1180","noAdvice","0","no_advice_display","html-button-response","108","315841","0.0-11.0-5.0-0.0","30","female","","-1","-1","","","","","","","","","","","","","","","","","","","","","","","","","","","","","","",""
"null","blank","null","blank_screen","html-keyboard-response","109","316644","0.0-11.0-5.0-1.0","30","female","","-1","-1","","","","","","","","","","","","","","","","","","","","","","","","","","","","","","",""
"1227.5999999996275","Confidence judgment (second response)","","confidence_second","html-keyboard-response","110","317875","0.0-11.0-6.0","30","female","","-1","-1","","","","left","62.75","62.75","50","false","48","","","","","","","","","","","","","","","","","","","","","",""
"null","consolidated-trial-data","null","consolidated-trial-data","consolidated-trial-data","111","317879","0.0-12.0","30","female","","","","","","","","","","","","","","","0","1","1","256","300","44","left","62.75","3","yes","right","left","62.75","true","","","","","",""
"null","fixation","null","fixation","html-keyboard-response","112","318198","0.0-13.0-0.0","30","female","","-1","-1","","","","","","","","","","","","","","","","","","","","","","","","","","","","","","",""
"null","[Dot display: left=252, right=300, diff=48]","null","numerosity","html-keyboard-response","113","318707","0.0-13.0-1.0","30","female","","-1","-1","252","300","48","","","","","","","","","","","","","","","","","","","","","","","","","","","",""
"2283.2999999988824","Confidence judgement (first response)","","confidence_first","html-keyboard-response","114","320993","0.0-13.0-2.0","30","female","","-1","-1","","","","right","80.75","50","80.75","true","48","","","","","","","","","","","","","","","","","","","","","",""
"1164","forcedAdvice","0","forced_advice_display","html-button-response","115","322158","0.0-13.0-4.0-0.0","30","female","","-1","-1","","","","","","","","","","","","","","","","","","","","","","","","","","","","","","",""
"null","[advice: right]","null","show_advice","html-keyboard-response","116","322962","0.0-13.0-4.0-1.0","30","female","","-1","-1","","","","","","","","","","","right","","","","","","","","","","","","","","","","","","","",""
"4660.9000000003725","Confidence judgment (second response)","","confidence_second","html-keyboard-response","117","327626","0.0-13.0-6.0","30","female","","-1","-1","","","","right","99.25","50","99.25","true","47","","","","","","","","","","","","","","","","","","","","","",""
"null","consolidated-trial-data","null","consolidated-trial-data","consolidated-trial-data","118","327629","0.0-14.0","30","female","","","","","","","","","","","","","","","0","2","2","252","300","48","right","80.75","2","yes","right","right","99.25","true","","","","","",""
"null","fixation","null","fixation","html-keyboard-response","119","328107","0.0-15.0-0.0","30","female","","-1","-1","","","","","","","","","","","","","","","","","","","","","","","","","","","","","","",""
"null","[Dot display: left=300, right=253, diff=47]","null","numerosity","html-keyboard-response","120","328615","0.0-15.0-1.0","30","female","","-1","-1","300","253","47","","","","","","","","","","","","","","","","","","","","","","","","","","","",""
"2458.2999999988824","Confidence judgement (first response)","","confidence_first","html-keyboard-response","121","331077","0.0-15.0-2.0","30","female","","-1","-1","","","","left","75.5","75.5","50","true","47","","","","","","","","","","","","","","","","","","","","","",""
"1180","forcedAdvice","0","forced_advice_display","html-button-response","122","332259","0.0-15.0-4.0-0.0","30","female","","-1","-1","","","","","","","","","","","","","","","","","","","","","","","","","","","","","","",""
"null","[advice: left]","null","show_advice","html-keyboard-response","123","333063","0.0-15.0-4.0-1.0","30","female","","-1","-1","","","","","","","","","","","left","","","","","","","","","","","","","","","","","","","",""
"2226.800000000745","Confidence judgment (second response)","","confidence_second","html-keyboard-response","124","335293","0.0-15.0-6.0","30","female","","-1","-1","","","","left","98.75","98.75","50","true","46","","","","","","","","","","","","","","","","","","","","","",""
"null","consolidated-trial-data","null","consolidated-trial-data","consolidated-trial-data","125","335296","0.0-16.0","30","female","","","","","","","","","","","","","","","0","3","3","300","253","47","left","75.5","2","yes","left","left","98.75","true","","","","","",""
"3344","block message","0","block_message","html-button-response","126","338642","0.0-17.0","30","female","","","","","","","","","","","","","1","","","","","","","","","","","","","","","","","","","","",""
"null","fixation","null","fixation","html-keyboard-response","127","338848","0.0-18.0-0.0","30","female","","-1","-1","","","","","","","","","","","","","","","","","","","","","","","","","","","","","","",""
"null","[Dot display: left=254, right=300, diff=46]","null","numerosity","html-keyboard-response","128","339357","0.0-18.0-1.0","30","female","","-1","-1","254","300","46","","","","","","","","","","","","","","","","","","","","","","","","","","","",""
"2150.199999999255","Confidence judgement (first response)","","confidence_first","html-keyboard-response","129","341510","0.0-18.0-2.0","30","female","","-1","-1","","","","right","71.75","50","71.75","true","46","","","","","","","","","","","","","","","","","","","","","",""
"1097","forcedAdvice","0","forced_advice_display","html-button-response","130","342609","0.0-18.0-4.0-0.0","30","female","","-1","-1","","","","","","","","","","","","","","","","","","","","","","","","","","","","","","",""
"null","[advice: right]","null","show_advice","html-keyboard-response","131","343412","0.0-18.0-4.0-1.0","30","female","","-1","-1","","","","","","","","","","","right","","","","","","","","","","","","","","","","","","","",""
"4145","Confidence judgment (second response)","","confidence_second","html-keyboard-response","132","347560","0.0-18.0-6.0","30","female","","-1","-1","","","","right","98.5","50","98.5","true","45","","","","","","","","","","","","","","","","","","","","","",""
"null","consolidated-trial-data","null","consolidated-trial-data","consolidated-trial-data","133","347562","0.0-19.0","30","female","","","","","","","","","","","","","","","0","4","4","254","300","46","right","71.75","2","yes","right","right","98.5","true","","","","","",""
"5495","attncheck","0","attncheck","html-button-response","134","353059","0.0-20.0","30","female","","","","","","","","","","","","","","","","","","","","","","","","","","","","","true","Stop","","","",""
"null","fixation","null","fixation","html-keyboard-response","135","353448","0.0-21.0-0.0","30","female","","-1","-1","","","","","","","","","","","","","","","","","","","","","","","","","","","","","","",""
"null","[Dot display: left=255, right=300, diff=45]","null","numerosity","html-keyboard-response","136","353957","0.0-21.0-1.0","30","female","","-1","-1","255","300","45","","","","","","","","","","","","","","","","","","","","","","","","","","","",""
"2334.0999999996275","Confidence judgement (first response)","","confidence_first","html-keyboard-response","137","356294","0.0-21.0-2.0","30","female","","-1","-1","","","","right","98.5","50","98.5","true","45","","","","","","","","","","","","","","","","","","","","","",""
"1064","noAdvice","0","no_advice_display","html-button-response","138","357360","0.0-21.0-5.0-0.0","30","female","","-1","-1","","","","","","","","","","","","","","","","","","","","","","","","","","","","","","",""
"null","blank","null","blank_screen","html-keyboard-response","139","358163","0.0-21.0-5.0-1.0","30","female","","-1","-1","","","","","","","","","","","","","","","","","","","","","","","","","","","","","","",""
"1443.5","Confidence judgment (second response)","","confidence_second","html-keyboard-response","140","359611","0.0-21.0-6.0","30","female","","-1","-1","","","","right","98.5","50","98.5","true","45","","","","","","","","","","","","","","","","","","","","","",""
"null","consolidated-trial-data","null","consolidated-trial-data","consolidated-trial-data","141","359613","0.0-22.0","30","female","","","","","","","","","","","","","","","0","5","5","255","300","45","right","98.5","3","yes","right","right","98.5","true","","","","","",""
"null","fixation","null","fixation","html-keyboard-response","142","359924","0.0-23.0-0.0","30","female","","-1","-1","","","","","","","","","","","","","","","","","","","","","","","","","","","","","","",""
"null","[Dot display: left=300, right=255, diff=45]","null","numerosity","html-keyboard-response","143","360432","0.0-23.0-1.0","30","female","","-1","-1","300","255","45","","","","","","","","","","","","","","","","","","","","","","","","","","","",""
"2092.800000000745","Confidence judgement (first response)","","confidence_first","html-keyboard-response","144","362527","0.0-23.0-2.0","30","female","","-1","-1","","","","left","90.75","90.75","50","true","44","","","","","","","","","","","","","","","","","","","","","",""
"1214","noAdvice","0","no_advice_display","html-button-response","145","363743","0.0-23.0-5.0-0.0","30","female","","-1","-1","","","","","","","","","","","","","","","","","","","","","","","","","","","","","","",""
"null","blank","null","blank_screen","html-keyboard-response","146","364546","0.0-23.0-5.0-1.0","30","female","","-1","-1","","","","","","","","","","","","","","","","","","","","","","","","","","","","","","",""
"1244","Confidence judgment (second response)","","confidence_second","html-keyboard-response","147","365794","0.0-23.0-6.0","30","female","","-1","-1","","","","left","90.75","90.75","50","true","44","","","","","","","","","","","","","","","","","","","","","",""
"null","consolidated-trial-data","null","consolidated-trial-data","consolidated-trial-data","148","365796","0.0-24.0","30","female","","","","","","","","","","","","","","","0","6","6","300","255","45","left","90.75","3","yes","right","left","90.75","false","","","","","",""
"null","fixation","null","fixation","html-keyboard-response","149","366234","0.0-25.0-0.0","30","female","","-1","-1","","","","","","","","","","","","","","","","","","","","","","","","","","","","","","",""
"null","[Dot display: left=256, right=300, diff=44]","null","numerosity","html-keyboard-response","150","366741","0.0-25.0-1.0","30","female","","-1","-1","256","300","44","","","","","","","","","","","","","","","","","","","","","","","","","","","",""
"2649.800000000745","Confidence judgement (first response)","","confidence_first","html-keyboard-response","151","369394","0.0-25.0-2.0","30","female","","-1","-1","","","","right","90.25","50","90.25","true","44","","","","","","","","","","","","","","","","","","","","","",""
"1281","[advice choice Y,N]","0","advice_choice","html-button-response","152","370677","0.0-25.0-3.0-0.0","30","female","","-1","-1","","","","","","","","","","","","","","","","","","","","","","","","","","","","","","",""
"null","[advice: left]","null","show_advice","html-keyboard-response","153","371480","0.0-25.0-3.0-1.0-0.0","30","female","","-1","-1","","","","","","","","","","","left","","","","","","","","","","","","","","","","","","","",""
"4627.700000001118","Confidence judgment (second response)","","confidence_second","html-keyboard-response","154","376111","0.0-25.0-6.0","30","female","","-1","-1","","","","right","53","50","53","true","43","","","","","","","","","","","","","","","","","","","","","",""
"null","consolidated-trial-data","null","consolidated-trial-data","consolidated-trial-data","155","376113","0.0-26.0","30","female","","","","","","","","","","","","","","","0","7","7","256","300","44","right","90.25","1","yes","left","right","53","false","","","","","",""
"null","fixation","null","fixation","html-keyboard-response","156","376593","0.0-27.0-0.0","30","female","","-1","-1","","","","","","","","","","","","","","","","","","","","","","","","","","","","","","",""
"null","[Dot display: left=300, right=257, diff=43]","null","numerosity","html-keyboard-response","157","377101","0.0-27.0-1.0","30","female","","-1","-1","300","257","43","","","","","","","","","","","","","","","","","","","","","","","","","","","",""
"2440.4000000003725","Confidence judgement (first response)","","confidence_first","html-keyboard-response","158","379544","0.0-27.0-2.0","30","female","","-1","-1","","","","left","61","61","50","true","43","","","","","","","","","","","","","","","","","","","","","",""
"1183","forcedAdvice","0","forced_advice_display","html-button-response","159","380728","0.0-27.0-4.0-0.0","30","female","","-1","-1","","","","","","","","","","","","","","","","","","","","","","","","","","","","","","",""
"null","[advice: left]","null","show_advice","html-keyboard-response","160","381532","0.0-27.0-4.0-1.0","30","female","","-1","-1","","","","","","","","","","","left","","","","","","","","","","","","","","","","","","","",""
"826.0999999996275","Confidence judgment (second response)","","confidence_second","html-keyboard-response","161","382361","0.0-27.0-6.0","30","female","","-1","-1","","","","left","61","61","50","true","43","","","","","","","","","","","","","","","","","","","","","",""
"null","consolidated-trial-data","null","consolidated-trial-data","consolidated-trial-data","162","382363","0.0-28.0","30","female","","","","","","","","","","","","","","","0","8","8","300","257","43","left","61","2","yes","left","left","61","true","","","","","",""
"2679","block message","0","block_message","html-button-response","163","385044","0.0-29.0","30","female","","","","","","","","","","","","","1","","","","","","","","","","","","","","","","","","","","",""
"null","fixation","null","fixation","html-keyboard-response","164","385337","0.0-30.0-0.0","30","female","","-1","-1","","","","","","","","","","","","","","","","","","","","","","","","","","","","","","",""
"null","[Dot display: left=300, right=257, diff=43]","null","numerosity","html-keyboard-response","165","385845","0.0-30.0-1.0","30","female","","-1","-1","300","257","43","","","","","","","","","","","","","","","","","","","","","","","","","","","",""
"1780.3999999985099","Confidence judgement (first response)","","confidence_first","html-keyboard-response","166","387628","0.0-30.0-2.0","30","female","","-1","-1","","","","left","68","68","50","true","42","","","","","","","","","","","","","","","","","","","","","",""
"1114","[advice choice Y,N]","0","advice_choice","html-button-response","167","388744","0.0-30.0-3.0-0.0","30","female","","-1","-1","","","","","","","","","","","","","","","","","","","","","","","","","","","","","","",""
"null","[advice: left]","null","show_advice","html-keyboard-response","168","389547","0.0-30.0-3.0-1.0-0.0","30","female","","-1","-1","","","","","","","","","","","left","","","","","","","","","","","","","","","","","","","",""
"761.1999999992549","Confidence judgment (second response)","","confidence_second","html-keyboard-response","169","390311","0.0-30.0-6.0","30","female","","-1","-1","","","","left","68","68","50","true","42","","","","","","","","","","","","","","","","","","","","","",""
"null","consolidated-trial-data","null","consolidated-trial-data","consolidated-trial-data","170","390313","0.0-31.0","30","female","","","","","","","","","","","","","","","0","9","9","300","257","43","left","68","1","yes","left","left","68","true","","","","","",""
"null","fixation","null","fixation","html-keyboard-response","171","390566","0.0-32.0-0.0","30","female","","-1","-1","","","","","","","","","","","","","","","","","","","","","","","","","","","","","","",""
"null","[Dot display: left=258, right=300, diff=42]","null","numerosity","html-keyboard-response","172","391073","0.0-32.0-1.0","30","female","","-1","-1","258","300","42","","","","","","","","","","","","","","","","","","","","","","","","","","","",""
"2085.0999999996275","Confidence judgement (first response)","","confidence_first","html-keyboard-response","173","393162","0.0-32.0-2.0","30","female","","-1","-1","","","","right","92.5","50","92.5","true","42","","","","","","","","","","","","","","","","","","","","","",""
"1164","[advice choice Y,N]","0","advice_choice","html-button-response","174","394327","0.0-32.0-3.0-0.0","30","female","","-1","-1","","","","","","","","","","","","","","","","","","","","","","","","","","","","","","",""
"null","[advice: right]","null","show_advice","html-keyboard-response","175","395131","0.0-32.0-3.0-1.0-0.0","30","female","","-1","-1","","","","","","","","","","","right","","","","","","","","","","","","","","","","","","","",""
"2326.5999999996275","Confidence judgment (second response)","","confidence_second","html-keyboard-response","176","397461","0.0-32.0-6.0","30","female","","-1","-1","","","","right","99.25","50","99.25","true","42","","","","","","","","","","","","","","","","","","","","","",""
"null","consolidated-trial-data","null","consolidated-trial-data","consolidated-trial-data","177","397463","0.0-33.0","30","female","","","","","","","","","","","","","","","0","10","10","258","300","42","right","92.5","1","yes","right","right","99.25","true","","","","","",""
"null","fixation","null","fixation","html-keyboard-response","178","397825","0.0-34.0-0.0","30","female","","-1","-1","","","","","","","","","","","","","","","","","","","","","","","","","","","","","","",""
"null","[Dot display: left=258, right=300, diff=42]","null","numerosity","html-keyboard-response","179","398334","0.0-34.0-1.0","30","female","","-1","-1","258","300","42","","","","","","","","","","","","","","","","","","","","","","","","","","","",""
"4491.4000000003725","Confidence judgement (first response)","","confidence_first","html-keyboard-response","180","402829","0.0-34.0-2.0","30","female","","-1","-1","","","","right","52.5","50","52.5","true","41","","","","","","","","","","","","","","","","","","","","","",""
"1030","noAdvice","0","no_advice_display","html-button-response","181","403861","0.0-34.0-5.0-0.0","30","female","","-1","-1","","","","","","","","","","","","","","","","","","","","","","","","","","","","","","",""
"null","blank","null","blank_screen","html-keyboard-response","182","404665","0.0-34.0-5.0-1.0","30","female","","-1","-1","","","","","","","","","","","","","","","","","","","","","","","","","","","","","","",""
"1177.0999999996275","Confidence judgment (second response)","","confidence_second","html-keyboard-response","183","405845","0.0-34.0-6.0","30","female","","-1","-1","","","","right","52.5","50","52.5","true","41","","","","","","","","","","","","","","","","","","","","","",""
"null","consolidated-trial-data","null","consolidated-trial-data","consolidated-trial-data","184","405847","0.0-35.0","30","female","","","","","","","","","","","","","","","0","11","11","258","300","42","right","52.5","3","yes","right","right","52.5","true","","","","","",""
"null","fixation","null","fixation","html-keyboard-response","185","406205","0.0-36.0-0.0","30","female","","-1","-1","","","","","","","","","","","","","","","","","","","","","","","","","","","","","","",""
"null","[Dot display: left=259, right=300, diff=41]","null","numerosity","html-keyboard-response","186","406712","0.0-36.0-1.0","30","female","","-1","-1","259","300","41","","","","","","","","","","","","","","","","","","","","","","","","","","","",""
"2129.699999999255","Confidence judgement (first response)","","confidence_first","html-keyboard-response","187","408845","0.0-36.0-2.0","30","female","","-1","-1","","","","right","88.25","50","88.25","true","41","","","","","","","","","","","","","","","","","","","","","",""
"2430","[advice choice Y,N]","0","advice_choice","html-button-response","188","411278","0.0-36.0-3.0-0.0","30","female","","-1","-1","","","","","","","","","","","","","","","","","","","","","","","","","","","","","","",""
"null","[advice: right]","null","show_advice","html-keyboard-response","189","412081","0.0-36.0-3.0-1.0-0.0","30","female","","-1","-1","","","","","","","","","","","right","","","","","","","","","","","","","","","","","","","",""
"3161.0999999996275","Confidence judgment (second response)","","confidence_second","html-keyboard-response","190","415246","0.0-36.0-6.0","30","female","","-1","-1","","","","right","99","50","99","true","41","","","","","","","","","","","","","","","","","","","","","",""
"null","consolidated-trial-data","null","consolidated-trial-data","consolidated-trial-data","191","415248","0.0-37.0","30","female","","","","","","","","","","","","","","","0","12","12","259","300","41","right","88.25","1","yes","right","right","99","true","","","","","",""
"null","fixation","null","fixation","html-keyboard-response","192","415694","0.0-38.0-0.0","30","female","","-1","-1","","","","","","","","","","","","","","","","","","","","","","","","","","","","","","",""
"null","[Dot display: left=259, right=300, diff=41]","null","numerosity","html-keyboard-response","193","416201","0.0-38.0-1.0","30","female","","-1","-1","259","300","41","","","","","","","","","","","","","","","","","","","","","","","","","","","",""
"1491.2000000011176","Confidence judgement (first response)","","confidence_first","html-keyboard-response","194","417695","0.0-38.0-2.0","30","female","","-1","-1","","","","right","77.25","50","77.25","true","40","","","","","","","","","","","","","","","","","","","","","",""
"997","forcedAdvice","0","forced_advice_display","html-button-response","195","418695","0.0-38.0-4.0-0.0","30","female","","-1","-1","","","","","","","","","","","","","","","","","","","","","","","","","","","","","","",""
"null","[advice: right]","null","show_advice","html-keyboard-response","196","419499","0.0-38.0-4.0-1.0","30","female","","-1","-1","","","","","","","","","","","right","","","","","","","","","","","","","","","","","","","",""
"2126.5","Confidence judgment (second response)","","confidence_second","html-keyboard-response","197","421629","0.0-38.0-6.0","30","female","","-1","-1","","","","right","98","50","98","true","40","","","","","","","","","","","","","","","","","","","","","",""
"null","consolidated-trial-data","null","consolidated-trial-data","consolidated-trial-data","198","421631","0.0-39.0","30","female","","","","","","","","","","","","","","","0","13","13","259","300","41","right","77.25","2","yes","right","right","98","true","","","","","",""
"null","fixation","null","fixation","html-keyboard-response","199","422006","0.0-40.0-0.0","30","female","","-1","-1","","","","","","","","","","","","","","","","","","","","","","","","","","","","","","",""
"null","[Dot display: left=300, right=260, diff=40]","null","numerosity","html-keyboard-response","200","422515","0.0-40.0-1.0","30","female","","-1","-1","300","260","40","","","","","","","","","","","","","","","","","","","","","","","","","","","",""
"2410.5999999996275","Confidence judgement (first response)","","confidence_first","html-keyboard-response","201","424929","0.0-40.0-2.0","30","female","","-1","-1","","","","left","99","99","50","true","40","","","","","","","","","","","","","","","","","","","","","",""
"914","noAdvice","0","no_advice_display","html-button-response","202","425845","0.0-40.0-5.0-0.0","30","female","","-1","-1","","","","","","","","","","","","","","","","","","","","","","","","","","","","","","",""
"null","blank","null","blank_screen","html-keyboard-response","203","426648","0.0-40.0-5.0-1.0","30","female","","-1","-1","","","","","","","","","","","","","","","","","","","","","","","","","","","","","","",""
"1211.2000000011176","Confidence judgment (second response)","","confidence_second","html-keyboard-response","204","427862","0.0-40.0-6.0","30","female","","-1","-1","","","","left","99","99","50","true","40","","","","","","","","","","","","","","","","","","","","","",""
"null","consolidated-trial-data","null","consolidated-trial-data","consolidated-trial-data","205","427865","0.0-41.0","30","female","","","","","","","","","","","","","","","0","14","14","300","260","40","left","99","3","yes","right","left","99","false","","","","","",""
"5595","block message","0","block_message","html-button-response","206","433462","0.0-42.0","30","female","","","","","","","","","","","","","2","","","","","","","","","","","","","","","","","","","","",""
"null","fixation","null","fixation","html-keyboard-response","207","433963","0.0-43.0-0.0","30","female","","-1","-1","","","","","","","","","","","","","","","","","","","","","","","","","","","","","","",""
"null","[Dot display: left=260, right=300, diff=40]","null","numerosity","html-keyboard-response","208","434471","0.0-43.0-1.0","30","female","","-1","-1","260","300","40","","","","","","","","","","","","","","","","","","","","","","","","","","","",""
"1955.300000000745","Confidence judgement (first response)","","confidence_first","html-keyboard-response","209","436430","0.0-43.0-2.0","30","female","","-1","-1","","","","right","99.25","50","99.25","true","40","","","","","","","","","","","","","","","","","","","","","",""
"1147","[advice choice Y,N]","0","advice_choice","html-button-response","210","437579","0.0-43.0-3.0-0.0","30","female","","-1","-1","","","","","","","","","","","","","","","","","","","","","","","","","","","","","","",""
"null","[advice: right]","null","show_advice","html-keyboard-response","211","438383","0.0-43.0-3.0-1.0-0.0","30","female","","-1","-1","","","","","","","","","","","right","","","","","","","","","","","","","","","","","","","",""
"3492.9000000003725","Confidence judgment (second response)","","confidence_second","html-keyboard-response","212","441880","0.0-43.0-6.0","30","female","","-1","-1","","","","right","98.5","50","98.5","true","39","","","","","","","","","","","","","","","","","","","","","",""
"null","consolidated-trial-data","null","consolidated-trial-data","consolidated-trial-data","213","441882","0.0-44.0","30","female","","","","","","","","","","","","","","","1","0","15","260","300","40","right","99.25","1","yes","right","right","98.5","true","","","","","",""
"null","fixation","null","fixation","html-keyboard-response","214","442167","0.0-45.0-0.0","30","female","","-1","-1","","","","","","","","","","","","","","","","","","","","","","","","","","","","","","",""
"null","[Dot display: left=261, right=300, diff=39]","null","numerosity","html-keyboard-response","215","442675","0.0-45.0-1.0","30","female","","-1","-1","261","300","39","","","","","","","","","","","","","","","","","","","","","","","","","","","",""
"1968.199999999255","Confidence judgement (first response)","","confidence_first","html-keyboard-response","216","444646","0.0-45.0-2.0","30","female","","-1","-1","","","","right","97.75","50","97.75","true","39","","","","","","","","","","","","","","","","","","","","","",""
"947","noAdvice","0","no_advice_display","html-button-response","217","445596","0.0-45.0-5.0-0.0","30","female","","-1","-1","","","","","","","","","","","","","","","","","","","","","","","","","","","","","","",""
"null","blank","null","blank_screen","html-keyboard-response","218","446398","0.0-45.0-5.0-1.0","30","female","","-1","-1","","","","","","","","","","","","","","","","","","","","","","","","","","","","","","",""
"1327.9000000003725","Confidence judgment (second response)","","confidence_second","html-keyboard-response","219","447730","0.0-45.0-6.0","30","female","","-1","-1","","","","right","97.75","50","97.75","true","39","","","","","","","","","","","","","","","","","","","","","",""
"null","consolidated-trial-data","null","consolidated-trial-data","consolidated-trial-data","220","447732","0.0-46.0","30","female","","","","","","","","","","","","","","","1","1","16","261","300","39","right","97.75","3","yes","right","right","97.75","true","","","","","",""
"null","fixation","null","fixation","html-keyboard-response","221","448089","0.0-47.0-0.0","30","female","","-1","-1","","","","","","","","","","","","","","","","","","","","","","","","","","","","","","",""
"null","[Dot display: left=300, right=261, diff=39]","null","numerosity","html-keyboard-response","222","448597","0.0-47.0-1.0","30","female","","-1","-1","300","261","39","","","","","","","","","","","","","","","","","","","","","","","","","","","",""
"2163","Confidence judgement (first response)","","confidence_first","html-keyboard-response","223","450763","0.0-47.0-2.0","30","female","","-1","-1","","","","left","58.75","58.75","50","true","39","","","","","","","","","","","","","","","","","","","","","",""
"947","forcedAdvice","0","forced_advice_display","html-button-response","224","451713","0.0-47.0-4.0-0.0","30","female","","-1","-1","","","","","","","","","","","","","","","","","","","","","","","","","","","","","","",""
"null","[advice: left]","null","show_advice","html-keyboard-response","225","452516","0.0-47.0-4.0-1.0","30","female","","-1","-1","","","","","","","","","","","left","","","","","","","","","","","","","","","","","","","",""
"6293.800000000745","Confidence judgment (second response)","","confidence_second","html-keyboard-response","226","458813","0.0-47.0-6.0","30","female","","-1","-1","","","","left","73","73","50","true","39","","","","","","","","","","","","","","","","","","","","","",""
"null","consolidated-trial-data","null","consolidated-trial-data","consolidated-trial-data","227","458816","0.0-48.0","30","female","","","","","","","","","","","","","","","1","2","17","300","261","39","left","58.75","2","yes","left","left","73","true","","","","","",""
"null","fixation","null","fixation","html-keyboard-response","228","459116","0.0-49.0-0.0","30","female","","-1","-1","","","","","","","","","","","","","","","","","","","","","","","","","","","","","","",""
"null","[Dot display: left=261, right=300, diff=39]","null","numerosity","html-keyboard-response","229","459622","0.0-49.0-1.0","30","female","","-1","-1","261","300","39","","","","","","","","","","","","","","","","","","","","","","","","","","","",""
"1788.0999999996275","Confidence judgement (first response)","","confidence_first","html-keyboard-response","230","461413","0.0-49.0-2.0","30","female","","-1","-1","","","","right","95.5","50","95.5","true","38","","","","","","","","","","","","","","","","","","","","","",""
"964","forcedAdvice","0","forced_advice_display","html-button-response","231","462380","0.0-49.0-4.0-0.0","30","female","","-1","-1","","","","","","","","","","","","","","","","","","","","","","","","","","","","","","",""
"null","[advice: right]","null","show_advice","html-keyboard-response","232","463183","0.0-49.0-4.0-1.0","30","female","","-1","-1","","","","","","","","","","","right","","","","","","","","","","","","","","","","","","","",""
"2144.7000000011176","Confidence judgment (second response)","","confidence_second","html-keyboard-response","233","465330","0.0-49.0-6.0","30","female","","-1","-1","","","","right","98.5","50","98.5","true","38","","","","","","","","","","","","","","","","","","","","","",""
"null","consolidated-trial-data","null","consolidated-trial-data","consolidated-trial-data","234","465333","0.0-50.0","30","female","","","","","","","","","","","","","","","1","3","18","261","300","39","right","95.5","2","yes","right","right","98.5","true","","","","","",""
"1445","block message","0","block_message","html-button-response","235","466781","0.0-51.0","30","female","","","","","","","","","","","","","2","","","","","","","","","","","","","","","","","","","","",""
"null","fixation","null","fixation","html-keyboard-response","236","467134","0.0-52.0-0.0","30","female","","-1","-1","","","","","","","","","","","","","","","","","","","","","","","","","","","","","","",""
"null","[Dot display: left=262, right=300, diff=38]","null","numerosity","html-keyboard-response","237","467643","0.0-52.0-1.0","30","female","","-1","-1","262","300","38","","","","","","","","","","","","","","","","","","","","","","","","","","","",""
"1683.300000000745","Confidence judgement (first response)","","confidence_first","html-keyboard-response","238","469329","0.0-52.0-2.0","30","female","","-1","-1","","","","right","68.75","50","68.75","true","38","","","","","","","","","","","","","","","","","","","","","",""
"1316","forcedAdvice","0","forced_advice_display","html-button-response","239","470647","0.0-52.0-4.0-0.0","30","female","","-1","-1","","","","","","","","","","","","","","","","","","","","","","","","","","","","","","",""
"null","[advice: right]","null","show_advice","html-keyboard-response","240","471451","0.0-52.0-4.0-1.0","30","female","","-1","-1","","","","","","","","","","","right","","","","","","","","","","","","","","","","","","","",""
"2475.800000000745","Confidence judgment (second response)","","confidence_second","html-keyboard-response","241","473930","0.0-52.0-6.0","30","female","","-1","-1","","","","right","88.5","50","88.5","true","38","","","","","","","","","","","","","","","","","","","","","",""
"null","consolidated-trial-data","null","consolidated-trial-data","consolidated-trial-data","242","473932","0.0-53.0","30","female","","","","","","","","","","","","","","","1","4","19","262","300","38","right","68.75","2","yes","right","right","88.5","true","","","","","",""
"null","fixation","null","fixation","html-keyboard-response","243","474184","0.0-54.0-0.0","30","female","","-1","-1","","","","","","","","","","","","","","","","","","","","","","","","","","","","","","",""
"null","[Dot display: left=262, right=300, diff=38]","null","numerosity","html-keyboard-response","244","474691","0.0-54.0-1.0","30","female","","-1","-1","262","300","38","","","","","","","","","","","","","","","","","","","","","","","","","","","",""
"2336.2999999988824","Confidence judgement (first response)","","confidence_first","html-keyboard-response","245","477030","0.0-54.0-2.0","30","female","","-1","-1","","","","right","99","50","99","true","38","","","","","","","","","","","","","","","","","","","","","",""
"864","noAdvice","0","no_advice_display","html-button-response","246","477897","0.0-54.0-5.0-0.0","30","female","","-1","-1","","","","","","","","","","","","","","","","","","","","","","","","","","","","","","",""
"null","blank","null","blank_screen","html-keyboard-response","247","478700","0.0-54.0-5.0-1.0","30","female","","-1","-1","","","","","","","","","","","","","","","","","","","","","","","","","","","","","","",""
"1928","Confidence judgment (second response)","","confidence_second","html-keyboard-response","248","480631","0.0-54.0-6.0","30","female","","-1","-1","","","","right","99","50","99","true","38","","","","","","","","","","","","","","","","","","","","","",""
"null","consolidated-trial-data","null","consolidated-trial-data","consolidated-trial-data","249","480633","0.0-55.0","30","female","","","","","","","","","","","","","","","1","5","20","262","300","38","right","99","3","yes","right","right","99","true","","","","","",""
"null","fixation","null","fixation","html-keyboard-response","250","480990","0.0-56.0-0.0","30","female","","-1","-1","","","","","","","","","","","","","","","","","","","","","","","","","","","","","","",""
"null","[Dot display: left=262, right=300, diff=38]","null","numerosity","html-keyboard-response","251","481499","0.0-56.0-1.0","30","female","","-1","-1","262","300","38","","","","","","","","","","","","","","","","","","","","","","","","","","","",""
"2695.4000000003725","Confidence judgement (first response)","","confidence_first","html-keyboard-response","252","484197","0.0-56.0-2.0","30","female","","-1","-1","","","","right","82.75","50","82.75","true","37","","","","","","","","","","","","","","","","","","","","","",""
"897","noAdvice","0","no_advice_display","html-button-response","253","485097","0.0-56.0-5.0-0.0","30","female","","-1","-1","","","","","","","","","","","","","","","","","","","","","","","","","","","","","","",""
"null","blank","null","blank_screen","html-keyboard-response","254","485900","0.0-56.0-5.0-1.0","30","female","","-1","-1","","","","","","","","","","","","","","","","","","","","","","","","","","","","","","",""
"1010.3000000007451","Confidence judgment (second response)","","confidence_second","html-keyboard-response","255","486915","0.0-56.0-6.0","30","female","","-1","-1","","","","right","82.75","50","82.75","true","37","","","","","","","","","","","","","","","","","","","","","",""
"null","consolidated-trial-data","null","consolidated-trial-data","consolidated-trial-data","256","486917","0.0-57.0","30","female","","","","","","","","","","","","","","","1","6","21","262","300","38","right","82.75","3","yes","right","right","82.75","true","","","","","",""
"null","fixation","null","fixation","html-keyboard-response","257","487138","0.0-58.0-0.0","30","female","","-1","-1","","","","","","","","","","","","","","","","","","","","","","","","","","","","","","",""
"null","[Dot display: left=263, right=300, diff=37]","null","numerosity","html-keyboard-response","258","487646","0.0-58.0-1.0","30","female","","-1","-1","263","300","37","","","","","","","","","","","","","","","","","","","","","","","","","","","",""
"1665.800000000745","Confidence judgement (first response)","","confidence_first","html-keyboard-response","259","489314","0.0-58.0-2.0","30","female","","-1","-1","","","","right","97.75","50","97.75","true","37","","","","","","","","","","","","","","","","","","","","","",""
"1480","[advice choice Y,N]","0","advice_choice","html-button-response","260","490796","0.0-58.0-3.0-0.0","30","female","","-1","-1","","","","","","","","","","","","","","","","","","","","","","","","","","","","","","",""
"null","[advice: right]","null","show_advice","html-keyboard-response","261","491600","0.0-58.0-3.0-1.0-0.0","30","female","","-1","-1","","","","","","","","","","","right","","","","","","","","","","","","","","","","","","","",""
"844.8000000007451","Confidence judgment (second response)","","confidence_second","html-keyboard-response","262","492448","0.0-58.0-6.0","30","female","","-1","-1","","","","right","97.75","50","97.75","true","37","","","","","","","","","","","","","","","","","","","","","",""
"null","consolidated-trial-data","null","consolidated-trial-data","consolidated-trial-data","263","492450","0.0-59.0","30","female","","","","","","","","","","","","","","","1","7","22","263","300","37","right","97.75","1","yes","right","right","97.75","true","","","","","",""
"null","fixation","null","fixation","html-keyboard-response","264","492701","0.0-60.0-0.0","30","female","","-1","-1","","","","","","","","","","","","","","","","","","","","","","","","","","","","","","",""
"null","[Dot display: left=263, right=300, diff=37]","null","numerosity","html-keyboard-response","265","493209","0.0-60.0-1.0","30","female","","-1","-1","263","300","37","","","","","","","","","","","","","","","","","","","","","","","","","","","",""
"2119.5999999996275","Confidence judgement (first response)","","confidence_first","html-keyboard-response","266","495332","0.0-60.0-2.0","30","female","","-1","-1","","","","right","97.5","50","97.5","true","37","","","","","","","","","","","","","","","","","","","","","",""
"1263","forcedAdvice","0","forced_advice_display","html-button-response","267","496597","0.0-60.0-4.0-0.0","30","female","","-1","-1","","","","","","","","","","","","","","","","","","","","","","","","","","","","","","",""
"null","[advice: left]","null","show_advice","html-keyboard-response","268","497401","0.0-60.0-4.0-1.0","30","female","","-1","-1","","","","","","","","","","","left","","","","","","","","","","","","","","","","","","","",""
"9959.900000000373","Confidence judgment (second response)","","confidence_second","html-keyboard-response","269","507364","0.0-60.0-6.0","30","female","","-1","-1","","","","left","53.5","53.5","50","false","37","","","","","","","","","","","","","","","","","","","","","",""
"null","consolidated-trial-data","null","consolidated-trial-data","consolidated-trial-data","270","507367","0.0-61.0","30","female","","","","","","","","","","","","","","","1","8","23","263","300","37","right","97.5","2","yes","left","left","53.5","false","","","","","",""
"1229","block message","0","block_message","html-button-response","271","508598","0.0-62.0","30","female","","","","","","","","","","","","","2","","","","","","","","","","","","","","","","","","","","",""
"null","fixation","null","fixation","html-keyboard-response","272","509072","0.0-63.0-0.0","30","female","","-1","-1","","","","","","","","","","","","","","","","","","","","","","","","","","","","","","",""
"null","[Dot display: left=263, right=300, diff=37]","null","numerosity","html-keyboard-response","273","509580","0.0-63.0-1.0","30","female","","-1","-1","263","300","37","","","","","","","","","","","","","","","","","","","","","","","","","","","",""
"1665.199999999255","Confidence judgement (first response)","","confidence_first","html-keyboard-response","274","511248","0.0-63.0-2.0","30","female","","-1","-1","","","","right","76","50","76","true","37","","","","","","","","","","","","","","","","","","","","","",""
"1197","[advice choice Y,N]","0","advice_choice","html-button-response","275","512448","0.0-63.0-3.0-0.0","30","female","","-1","-1","","","","","","","","","","","","","","","","","","","","","","","","","","","","","","",""
"null","[advice: right]","null","show_advice","html-keyboard-response","276","513252","0.0-63.0-3.0-1.0-0.0","30","female","","-1","-1","","","","","","","","","","","right","","","","","","","","","","","","","","","","","","","",""
"676.5999999996275","Confidence judgment (second response)","","confidence_second","html-keyboard-response","277","513932","0.0-63.0-6.0","30","female","","-1","-1","","","","right","76","50","76","true","37","","","","","","","","","","","","","","","","","","","","","",""
"null","consolidated-trial-data","null","consolidated-trial-data","consolidated-trial-data","278","513934","0.0-64.0","30","female","","","","","","","","","","","","","","","1","9","24","263","300","37","right","76","1","yes","right","right","76","true","","","","","",""
"null","fixation","null","fixation","html-keyboard-response","279","514286","0.0-65.0-0.0","30","female","","-1","-1","","","","","","","","","","","","","","","","","","","","","","","","","","","","","","",""
"null","[Dot display: left=300, right=263, diff=37]","null","numerosity","html-keyboard-response","280","514794","0.0-65.0-1.0","30","female","","-1","-1","300","263","37","","","","","","","","","","","","","","","","","","","","","","","","","","","",""
"4900.9000000003725","Confidence judgement (first response)","","confidence_first","html-keyboard-response","281","519698","0.0-65.0-2.0","30","female","","-1","-1","","","","left","96.75","96.75","50","true","37","","","","","","","","","","","","","","","","","","","","","",""
"1181","[advice choice Y,N]","0","advice_choice","html-button-response","282","520881","0.0-65.0-3.0-0.0","30","female","","-1","-1","","","","","","","","","","","","","","","","","","","","","","","","","","","","","","",""
"null","[advice: left]","null","show_advice","html-keyboard-response","283","521686","0.0-65.0-3.0-1.0-0.0","30","female","","-1","-1","","","","","","","","","","","left","","","","","","","","","","","","","","","","","","","",""
"709.7000000011176","Confidence judgment (second response)","","confidence_second","html-keyboard-response","284","522399","0.0-65.0-6.0","30","female","","-1","-1","","","","left","96.75","96.75","50","true","37","","","","","","","","","","","","","","","","","","","","","",""
"null","consolidated-trial-data","null","consolidated-trial-data","consolidated-trial-data","285","522401","0.0-66.0","30","female","","","","","","","","","","","","","","","1","10","25","300","263","37","left","96.75","1","yes","left","left","96.75","true","","","","","",""
"null","fixation","null","fixation","html-keyboard-response","286","522701","0.0-67.0-0.0","30","female","","-1","-1","","","","","","","","","","","","","","","","","","","","","","","","","","","","","","",""
"null","[Dot display: left=300, right=263, diff=37]","null","numerosity","html-keyboard-response","287","523209","0.0-67.0-1.0","30","female","","-1","-1","300","263","37","","","","","","","","","","","","","","","","","","","","","","","","","","","",""
"2053","Confidence judgement (first response)","","confidence_first","html-keyboard-response","288","525265","0.0-67.0-2.0","30","female","","-1","-1","","","","left","93.75","93.75","50","true","37","","","","","","","","","","","","","","","","","","","","","",""
"797","noAdvice","0","no_advice_display","html-button-response","289","526065","0.0-67.0-5.0-0.0","30","female","","-1","-1","","","","","","","","","","","","","","","","","","","","","","","","","","","","","","",""
"null","blank","null","blank_screen","html-keyboard-response","290","526868","0.0-67.0-5.0-1.0","30","female","","-1","-1","","","","","","","","","","","","","","","","","","","","","","","","","","","","","","",""
"810.5","Confidence judgment (second response)","","confidence_second","html-keyboard-response","291","527683","0.0-67.0-6.0","30","female","","-1","-1","","","","left","93.75","93.75","50","true","37","","","","","","","","","","","","","","","","","","","","","",""
"null","consolidated-trial-data","null","consolidated-trial-data","consolidated-trial-data","292","527685","0.0-68.0","30","female","","","","","","","","","","","","","","","1","11","26","300","263","37","left","93.75","3","yes","left","left","93.75","true","","","","","",""
"null","fixation","null","fixation","html-keyboard-response","293","528061","0.0-69.0-0.0","30","female","","-1","-1","","","","","","","","","","","","","","","","","","","","","","","","","","","","","","",""
"null","[Dot display: left=300, right=263, diff=37]","null","numerosity","html-keyboard-response","294","528569","0.0-69.0-1.0","30","female","","-1","-1","300","263","37","","","","","","","","","","","","","","","","","","","","","","","","","","","",""
"1659.7999999988824","Confidence judgement (first response)","","confidence_first","html-keyboard-response","295","530232","0.0-69.0-2.0","30","female","","-1","-1","","","","left","97.5","97.5","50","true","36","","","","","","","","","","","","","","","","","","","","","",""
"914","[advice choice Y,N]","0","advice_choice","html-button-response","296","531148","0.0-69.0-3.0-0.0","30","female","","-1","-1","","","","","","","","","","","","","","","","","","","","","","","","","","","","","","",""
"null","[advice: left]","null","show_advice","html-keyboard-response","297","531952","0.0-69.0-3.0-1.0-0.0","30","female","","-1","-1","","","","","","","","","","","left","","","","","","","","","","","","","","","","","","","",""
"793.0999999996275","Confidence judgment (second response)","","confidence_second","html-keyboard-response","298","532749","0.0-69.0-6.0","30","female","","-1","-1","","","","left","97.5","97.5","50","true","36","","","","","","","","","","","","","","","","","","","","","",""
"null","consolidated-trial-data","null","consolidated-trial-data","consolidated-trial-data","299","532750","0.0-70.0","30","female","","","","","","","","","","","","","","","1","12","27","300","263","37","left","97.5","1","yes","left","left","97.5","true","","","","","",""
"null","fixation","null","fixation","html-keyboard-response","300","533239","0.0-71.0-0.0","30","female","","-1","-1","","","","","","","","","","","","","","","","","","","","","","","","","","","","","","",""
"null","[Dot display: left=300, right=264, diff=36]","null","numerosity","html-keyboard-response","301","533748","0.0-71.0-1.0","30","female","","-1","-1","300","264","36","","","","","","","","","","","","","","","","","","","","","","","","","","","",""
"3014.5","Confidence judgement (first response)","","confidence_first","html-keyboard-response","302","536766","0.0-71.0-2.0","30","female","","-1","-1","","","","left","98.75","98.75","50","true","36","","","","","","","","","","","","","","","","","","","","","",""
"763","forcedAdvice","0","forced_advice_display","html-button-response","303","537532","0.0-71.0-4.0-0.0","30","female","","-1","-1","","","","","","","","","","","","","","","","","","","","","","","","","","","","","","",""
"null","[advice: left]","null","show_advice","html-keyboard-response","304","538335","0.0-71.0-4.0-1.0","30","female","","-1","-1","","","","","","","","","","","left","","","","","","","","","","","","","","","","","","","",""
"977.3000000007451","Confidence judgment (second response)","","confidence_second","html-keyboard-response","305","539316","0.0-71.0-6.0","30","female","","-1","-1","","","","left","98.75","98.75","50","true","36","","","","","","","","","","","","","","","","","","","","","",""
"null","consolidated-trial-data","null","consolidated-trial-data","consolidated-trial-data","306","539318","0.0-72.0","30","female","","","","","","","","","","","","","","","1","13","28","300","264","36","left","98.75","2","yes","left","left","98.75","true","","","","","",""
"null","fixation","null","fixation","html-keyboard-response","307","539589","0.0-73.0-0.0","30","female","","-1","-1","","","","","","","","","","","","","","","","","","","","","","","","","","","","","","",""
"null","[Dot display: left=300, right=264, diff=36]","null","numerosity","html-keyboard-response","308","540097","0.0-73.0-1.0","30","female","","-1","-1","300","264","36","","","","","","","","","","","","","","","","","","","","","","","","","","","",""
"4149.299999998882","Confidence judgement (first response)","","confidence_first","html-keyboard-response","309","544250","0.0-73.0-2.0","30","female","","-1","-1","","","","left","97","97","50","true","36","","","","","","","","","","","","","","","","","","","","","",""
"780","noAdvice","0","no_advice_display","html-button-response","310","545032","0.0-73.0-5.0-0.0","30","female","","-1","-1","","","","","","","","","","","","","","","","","","","","","","","","","","","","","","",""
"null","blank","null","blank_screen","html-keyboard-response","311","545836","0.0-73.0-5.0-1.0","30","female","","-1","-1","","","","","","","","","","","","","","","","","","","","","","","","","","","","","","",""
"827.1999999992549","Confidence judgment (second response)","","confidence_second","html-keyboard-response","312","546666","0.0-73.0-6.0","30","female","","-1","-1","","","","left","97","97","50","true","36","","","","","","","","","","","","","","","","","","","","","",""
"null","consolidated-trial-data","null","consolidated-trial-data","consolidated-trial-data","313","546668","0.0-74.0","30","female","","","","","","","","","","","","","","","1","14","29","300","264","36","left","97","3","yes","left","left","97","true","","","","","",""
"1644","block message","0","block_message","html-button-response","314","548313","0.0-75.0","30","female","","","","","","","","","","","","","3","","","","","","","","","","","","","","","","","","","","",""
"null","fixation","null","fixation","html-keyboard-response","315","548740","0.0-76.0-0.0","30","female","","-1","-1","","","","","","","","","","","","","","","","","","","","","","","","","","","","","","",""
"null","[Dot display: left=264, right=300, diff=36]","null","numerosity","html-keyboard-response","316","549249","0.0-76.0-1.0","30","female","","-1","-1","264","300","36","","","","","","","","","","","","","","","","","","","","","","","","","","","",""
"1947.9000000003725","Confidence judgement (first response)","","confidence_first","html-keyboard-response","317","551200","0.0-76.0-2.0","30","female","","-1","-1","","","","right","98","50","98","true","36","","","","","","","","","","","","","","","","","","","","","",""
"930","[advice choice Y,N]","0","advice_choice","html-button-response","318","552132","0.0-76.0-3.0-0.0","30","female","","-1","-1","","","","","","","","","","","","","","","","","","","","","","","","","","","","","","",""
"null","[advice: right]","null","show_advice","html-keyboard-response","319","552935","0.0-76.0-3.0-1.0-0.0","30","female","","-1","-1","","","","","","","","","","","right","","","","","","","","","","","","","","","","","","","",""
"811","Confidence judgment (second response)","","confidence_second","html-keyboard-response","320","553750","0.0-76.0-6.0","30","female","","-1","-1","","","","right","98","50","98","true","35","","","","","","","","","","","","","","","","","","","","","",""
"null","consolidated-trial-data","null","consolidated-trial-data","consolidated-trial-data","321","553752","0.0-77.0","30","female","","","","","","","","","","","","","","","2","0","30","264","300","36","right","98","1","yes","right","right","98","true","","","","","",""
"null","fixation","null","fixation","html-keyboard-response","322","554077","0.0-78.0-0.0","30","female","","-1","-1","","","","","","","","","","","","","","","","","","","","","","","","","","","","","","",""
"null","[Dot display: left=300, right=265, diff=35]","null","numerosity","html-keyboard-response","323","554585","0.0-78.0-1.0","30","female","","-1","-1","300","265","35","","","","","","","","","","","","","","","","","","","","","","","","","","","",""
"3161","Confidence judgement (first response)","","confidence_first","html-keyboard-response","324","557749","0.0-78.0-2.0","30","female","","-1","-1","","","","left","53.25","53.25","50","true","35","","","","","","","","","","","","","","","","","","","","","",""
"897","noAdvice","0","no_advice_display","html-button-response","325","558649","0.0-78.0-5.0-0.0","30","female","","-1","-1","","","","","","","","","","","","","","","","","","","","","","","","","","","","","","",""
"null","blank","null","blank_screen","html-keyboard-response","326","559452","0.0-78.0-5.0-1.0","30","female","","-1","-1","","","","","","","","","","","","","","","","","","","","","","","","","","","","","","",""
"1411.0999999996275","Confidence judgment (second response)","","confidence_second","html-keyboard-response","327","560867","0.0-78.0-6.0","30","female","","-1","-1","","","","left","53.25","53.25","50","true","35","","","","","","","","","","","","","","","","","","","","","",""
"null","consolidated-trial-data","null","consolidated-trial-data","consolidated-trial-data","328","560869","0.0-79.0","30","female","","","","","","","","","","","","","","","2","1","31","300","265","35","left","53.25","3","yes","right","left","53.25","false","","","","","",""
"null","fixation","null","fixation","html-keyboard-response","329","561215","0.0-80.0-0.0","30","female","","-1","-1","","","","","","","","","","","","","","","","","","","","","","","","","","","","","","",""
"null","[Dot display: left=265, right=300, diff=35]","null","numerosity","html-keyboard-response","330","561723","0.0-80.0-1.0","30","female","","-1","-1","265","300","35","","","","","","","","","","","","","","","","","","","","","","","","","","","",""
"1623.800000000745","Confidence judgement (first response)","","confidence_first","html-keyboard-response","331","563350","0.0-80.0-2.0","30","female","","-1","-1","","","","right","91","50","91","true","35","","","","","","","","","","","","","","","","","","","","","",""
"1281","forcedAdvice","0","forced_advice_display","html-button-response","332","564633","0.0-80.0-4.0-0.0","30","female","","-1","-1","","","","","","","","","","","","","","","","","","","","","","","","","","","","","","",""
"null","[advice: right]","null","show_advice","html-keyboard-response","333","565437","0.0-80.0-4.0-1.0","30","female","","-1","-1","","","","","","","","","","","right","","","","","","","","","","","","","","","","","","","",""
"725.4000000003725","Confidence judgment (second response)","","confidence_second","html-keyboard-response","334","566166","0.0-80.0-6.0","30","female","","-1","-1","","","","right","91","50","91","true","35","","","","","","","","","","","","","","","","","","","","","",""
"null","consolidated-trial-data","null","consolidated-trial-data","consolidated-trial-data","335","566168","0.0-81.0","30","female","","","","","","","","","","","","","","","2","2","32","265","300","35","right","91","2","yes","right","right","91","true","","","","","",""
"null","fixation","null","fixation","html-keyboard-response","336","566375","0.0-82.0-0.0","30","female","","-1","-1","","","","","","","","","","","","","","","","","","","","","","","","","","","","","","",""
"null","[Dot display: left=265, right=300, diff=35]","null","numerosity","html-keyboard-response","337","566883","0.0-82.0-1.0","30","female","","-1","-1","265","300","35","","","","","","","","","","","","","","","","","","","","","","","","","","","",""
"3746.800000000745","Confidence judgement (first response)","","confidence_first","html-keyboard-response","338","570633","0.0-82.0-2.0","30","female","","-1","-1","","","","right","78.25","50","78.25","true","35","","","","","","","","","","","","","","","","","","","","","",""
"764","forcedAdvice","0","forced_advice_display","html-button-response","339","571399","0.0-82.0-4.0-0.0","30","female","","-1","-1","","","","","","","","","","","","","","","","","","","","","","","","","","","","","","",""
"null","[advice: left]","null","show_advice","html-keyboard-response","340","572202","0.0-82.0-4.0-1.0","30","female","","-1","-1","","","","","","","","","","","left","","","","","","","","","","","","","","","","","","","",""
"1861.5","Confidence judgment (second response)","","confidence_second","html-keyboard-response","341","574067","0.0-82.0-6.0","30","female","","-1","-1","","","","left","60.5","60.5","50","false","35","","","","","","","","","","","","","","","","","","","","","",""
"null","consolidated-trial-data","null","consolidated-trial-data","consolidated-trial-data","342","574070","0.0-83.0","30","female","","","","","","","","","","","","","","","2","3","33","265","300","35","right","78.25","2","yes","left","left","60.5","false","","","","","",""
"1179","block message","0","block_message","html-button-response","343","575250","0.0-84.0","30","female","","","","","","","","","","","","","3","","","","","","","","","","","","","","","","","","","","",""
"null","fixation","null","fixation","html-keyboard-response","344","575523","0.0-85.0-0.0","30","female","","-1","-1","","","","","","","","","","","","","","","","","","","","","","","","","","","","","","",""
"null","[Dot display: left=265, right=300, diff=35]","null","numerosity","html-keyboard-response","345","576032","0.0-85.0-1.0","30","female","","-1","-1","265","300","35","","","","","","","","","","","","","","","","","","","","","","","","","","","",""
"2015.5","Confidence judgement (first response)","","confidence_first","html-keyboard-response","346","578050","0.0-85.0-2.0","30","female","","-1","-1","","","","right","96.25","50","96.25","true","35","","","","","","","","","","","","","","","","","","","","","",""
"781","forcedAdvice","0","forced_advice_display","html-button-response","347","578834","0.0-85.0-4.0-0.0","30","female","","-1","-1","","","","","","","","","","","","","","","","","","","","","","","","","","","","","","",""
"null","[advice: right]","null","show_advice","html-keyboard-response","348","579638","0.0-85.0-4.0-1.0","30","female","","-1","-1","","","","","","","","","","","right","","","","","","","","","","","","","","","","","","","",""
"708.7999999988824","Confidence judgment (second response)","","confidence_second","html-keyboard-response","349","580350","0.0-85.0-6.0","30","female","","-1","-1","","","","right","96.25","50","96.25","true","35","","","","","","","","","","","","","","","","","","","","","",""
"null","consolidated-trial-data","null","consolidated-trial-data","consolidated-trial-data","350","580353","0.0-86.0","30","female","","","","","","","","","","","","","","","2","4","34","265","300","35","right","96.25","2","yes","right","right","96.25","true","","","","","",""
"null","fixation","null","fixation","html-keyboard-response","351","580712","0.0-87.0-0.0","30","female","","-1","-1","","","","","","","","","","","","","","","","","","","","","","","","","","","","","","",""
"null","[Dot display: left=300, right=265, diff=35]","null","numerosity","html-keyboard-response","352","581220","0.0-87.0-1.0","30","female","","-1","-1","300","265","35","","","","","","","","","","","","","","","","","","","","","","","","","","","",""
"2693.2999999988824","Confidence judgement (first response)","","confidence_first","html-keyboard-response","353","583916","0.0-87.0-2.0","30","female","","-1","-1","","","","right","53.75","50","53.75","false","36","","","","","","","","","","","","","","","","","","","","","",""
"815","noAdvice","0","no_advice_display","html-button-response","354","584733","0.0-87.0-5.0-0.0","30","female","","-1","-1","","","","","","","","","","","","","","","","","","","","","","","","","","","","","","",""
"null","blank","null","blank_screen","html-keyboard-response","355","585536","0.0-87.0-5.0-1.0","30","female","","-1","-1","","","","","","","","","","","","","","","","","","","","","","","","","","","","","","",""
"1527.5","Confidence judgment (second response)","","confidence_second","html-keyboard-response","356","587068","0.0-87.0-6.0","30","female","","-1","-1","","","","right","53.75","50","53.75","false","36","","","","","","","","","","","","","","","","","","","","","",""
"null","consolidated-trial-data","null","consolidated-trial-data","consolidated-trial-data","357","587070","0.0-88.0","30","female","","","","","","","","","","","","","","","2","5","35","300","265","35","right","53.75","3","yes","right","right","53.75","false","","","","","",""
"null","fixation","null","fixation","html-keyboard-response","358","587541","0.0-89.0-0.0","30","female","","-1","-1","","","","","","","","","","","","","","","","","","","","","","","","","","","","","","",""
"null","[Dot display: left=300, right=264, diff=36]","null","numerosity","html-keyboard-response","359","588049","0.0-89.0-1.0","30","female","","-1","-1","300","264","36","","","","","","","","","","","","","","","","","","","","","","","","","","","",""
"3432.39999999851","Confidence judgement (first response)","","confidence_first","html-keyboard-response","360","591484","0.0-89.0-2.0","30","female","","-1","-1","","","","right","98.25","50","98.25","false","37","","","","","","","","","","","","","","","","","","","","","",""
"765","noAdvice","0","no_advice_display","html-button-response","361","592251","0.0-89.0-5.0-0.0","30","female","","-1","-1","","","","","","","","","","","","","","","","","","","","","","","","","","","","","","",""
"null","blank","null","blank_screen","html-keyboard-response","362","593053","0.0-89.0-5.0-1.0","30","female","","-1","-1","","","","","","","","","","","","","","","","","","","","","","","","","","","","","","",""
"811.1000000014901","Confidence judgment (second response)","","confidence_second","html-keyboard-response","363","593868","0.0-89.0-6.0","30","female","","-1","-1","","","","right","98.25","50","98.25","false","37","","","","","","","","","","","","","","","","","","","","","",""
"null","consolidated-trial-data","null","consolidated-trial-data","consolidated-trial-data","364","593871","0.0-90.0","30","female","","","","","","","","","","","","","","","2","6","36","300","264","36","right","98.25","3","yes","right","right","98.25","false","","","","","",""
"null","fixation","null","fixation","html-keyboard-response","365","594149","0.0-91.0-0.0","30","female","","-1","-1","","","","","","","","","","","","","","","","","","","","","","","","","","","","","","",""
"null","[Dot display: left=263, right=300, diff=37]","null","numerosity","html-keyboard-response","366","594657","0.0-91.0-1.0","30","female","","-1","-1","263","300","37","","","","","","","","","","","","","","","","","","","","","","","","","","","",""
"3024.60000000149","Confidence judgement (first response)","","confidence_first","html-keyboard-response","367","597684","0.0-91.0-2.0","30","female","","-1","-1","","","","right","98.5","50","98.5","true","37","","","","","","","","","","","","","","","","","","","","","",""
"930","[advice choice Y,N]","0","advice_choice","html-button-response","368","598617","0.0-91.0-3.0-0.0","30","female","","-1","-1","","","","","","","","","","","","","","","","","","","","","","","","","","","","","","",""
"null","[advice: right]","null","show_advice","html-keyboard-response","369","599421","0.0-91.0-3.0-1.0-0.0","30","female","","-1","-1","","","","","","","","","","","right","","","","","","","","","","","","","","","","","","","",""
"659.1999999992549","Confidence judgment (second response)","","confidence_second","html-keyboard-response","370","600083","0.0-91.0-6.0","30","female","","-1","-1","","","","right","98.5","50","98.5","true","37","","","","","","","","","","","","","","","","","","","","","",""
"null","consolidated-trial-data","null","consolidated-trial-data","consolidated-trial-data","371","600086","0.0-92.0","30","female","","","","","","","","","","","","","","","2","7","37","263","300","37","right","98.5","1","yes","right","right","98.5","true","","","","","",""
"null","fixation","null","fixation","html-keyboard-response","372","600310","0.0-93.0-0.0","30","female","","-1","-1","","","","","","","","","","","","","","","","","","","","","","","","","","","","","","",""
"null","[Dot display: left=300, right=263, diff=37]","null","numerosity","html-keyboard-response","373","600818","0.0-93.0-1.0","30","female","","-1","-1","300","263","37","","","","","","","","","","","","","","","","","","","","","","","","","","","",""
"1696.7000000029802","Confidence judgement (first response)","","confidence_first","html-keyboard-response","374","602518","0.0-93.0-2.0","30","female","","-1","-1","","","","left","98.5","98.5","50","true","37","","","","","","","","","","","","","","","","","","","","","",""
"747","forcedAdvice","0","forced_advice_display","html-button-response","375","603267","0.0-93.0-4.0-0.0","30","female","","-1","-1","","","","","","","","","","","","","","","","","","","","","","","","","","","","","","",""
"null","[advice: left]","null","show_advice","html-keyboard-response","376","604071","0.0-93.0-4.0-1.0","30","female","","-1","-1","","","","","","","","","","","left","","","","","","","","","","","","","","","","","","","",""
"726.1000000014901","Confidence judgment (second response)","","confidence_second","html-keyboard-response","377","604801","0.0-93.0-6.0","30","female","","-1","-1","","","","left","98.5","98.5","50","true","37","","","","","","","","","","","","","","","","","","","","","",""
"null","consolidated-trial-data","null","consolidated-trial-data","consolidated-trial-data","378","604803","0.0-94.0","30","female","","","","","","","","","","","","","","","2","8","38","300","263","37","left","98.5","2","yes","left","left","98.5","true","","","","","",""
"945","block message","0","block_message","html-button-response","379","605750","0.0-95.0","30","female","","","","","","","","","","","","","3","","","","","","","","","","","","","","","","","","","","",""
"null","fixation","null","fixation","html-keyboard-response","380","606087","0.0-96.0-0.0","30","female","","-1","-1","","","","","","","","","","","","","","","","","","","","","","","","","","","","","","",""
"null","[Dot display: left=263, right=300, diff=37]","null","numerosity","html-keyboard-response","381","606595","0.0-96.0-1.0","30","female","","-1","-1","263","300","37","","","","","","","","","","","","","","","","","","","","","","","","","","","",""
"1953.199999999255","Confidence judgement (first response)","","confidence_first","html-keyboard-response","382","608552","0.0-96.0-2.0","30","female","","-1","-1","","","","right","91","50","91","true","37","","","","","","","","","","","","","","","","","","","","","",""
"663","[advice choice Y,N]","0","advice_choice","html-button-response","383","609217","0.0-96.0-3.0-0.0","30","female","","-1","-1","","","","","","","","","","","","","","","","","","","","","","","","","","","","","","",""
"null","[advice: right]","null","show_advice","html-keyboard-response","384","610021","0.0-96.0-3.0-1.0-0.0","30","female","","-1","-1","","","","","","","","","","","right","","","","","","","","","","","","","","","","","","","",""
"526.6999999992549","Confidence judgment (second response)","","confidence_second","html-keyboard-response","385","610552","0.0-96.0-6.0","30","female","","-1","-1","","","","right","91","50","91","true","36","","","","","","","","","","","","","","","","","","","","","",""
"null","consolidated-trial-data","null","consolidated-trial-data","consolidated-trial-data","386","610554","0.0-97.0","30","female","","","","","","","","","","","","","","","2","9","39","263","300","37","right","91","1","yes","right","right","91","true","","","","","",""
"1728","attncheck","0","attncheck","html-button-response","387","612284","0.0-98.0","30","female","","","","","","","","","","","","","","","","","","","","","","","","","","","","","true","Stop","","","",""
"null","fixation","null","fixation","html-keyboard-response","388","612499","0.0-99.0-0.0","30","female","","-1","-1","","","","","","","","","","","","","","","","","","","","","","","","","","","","","","",""
"null","[Dot display: left=264, right=300, diff=36]","null","numerosity","html-keyboard-response","389","613007","0.0-99.0-1.0","30","female","","-1","-1","264","300","36","","","","","","","","","","","","","","","","","","","","","","","","","","","",""
"2074.5","Confidence judgement (first response)","","confidence_first","html-keyboard-response","390","615085","0.0-99.0-2.0","30","female","","-1","-1","","","","right","95.5","50","95.5","true","36","","","","","","","","","","","","","","","","","","","","","",""
"880","[advice choice Y,N]","0","advice_choice","html-button-response","391","615967","0.0-99.0-3.0-0.0","30","female","","-1","-1","","","","","","","","","","","","","","","","","","","","","","","","","","","","","","",""
"null","[advice: left]","null","show_advice","html-keyboard-response","392","616771","0.0-99.0-3.0-1.0-0.0","30","female","","-1","-1","","","","","","","","","","","left","","","","","","","","","","","","","","","","","","","",""
"2826.5","Confidence judgment (second response)","","confidence_second","html-keyboard-response","393","619601","0.0-99.0-6.0","30","female","","-1","-1","","","","left","97.75","97.75","50","false","37","","","","","","","","","","","","","","","","","","","","","",""
"null","consolidated-trial-data","null","consolidated-trial-data","consolidated-trial-data","394","619603","0.0-100.0","30","female","","","","","","","","","","","","","","","2","10","40","264","300","36","right","95.5","1","yes","left","left","97.75","false","","","","","",""
"null","fixation","null","fixation","html-keyboard-response","395","619902","0.0-101.0-0.0","30","female","","-1","-1","","","","","","","","","","","","","","","","","","","","","","","","","","","","","","",""
"null","[Dot display: left=263, right=300, diff=37]","null","numerosity","html-keyboard-response","396","620409","0.0-101.0-1.0","30","female","","-1","-1","263","300","37","","","","","","","","","","","","","","","","","","","","","","","","","","","",""
"2806.800000000745","Confidence judgement (first response)","","confidence_first","html-keyboard-response","397","623219","0.0-101.0-2.0","30","female","","-1","-1","","","","right","53.75","50","53.75","true","37","","","","","","","","","","","","","","","","","","","","","",""
"813","noAdvice","0","no_advice_display","html-button-response","398","624035","0.0-101.0-5.0-0.0","30","female","","-1","-1","","","","","","","","","","","","","","","","","","","","","","","","","","","","","","",""
