"success","task","trial_type","trial_index","time_elapsed","internal_node_id","rt","stimulus","response","pixels_per_unit","itrial","iblock","leftDots","rightDots","difference","selected_side","confidence_value","left_confidence","right_confidence","correct","threshold","block_num","advice_direction","block","trial","trialid","dotsLeft","dotsRight","dotsDiff","selectedSide_first","confidence_first","correct_1","rt_1","adviceCond","adviceChoice","adviceDir","selectedSide_second","confidence_second","adviceCorrect","correct_2","rt_2","attention_check_correct","target_button","top_prompt","bottom_prompt","top_response","bottom_response","question_order"
"true","fullscreen_enter","fullscreen","0","17524","0.0-0.0","","","","","","","","","","","","","","","","","","","","","","","","","","","","","","","","","","","","","","","","","",""
"","welcome","html-button-response","1","31241","0.0-1.0","13715","welcome_msg","0","","","","","","","","","","","","","","","","","","","","","","","","","","","","","","","","","","","","","","",""
"","PISdoc","html-button-response","2","627305","0.0-2.0","596060","PISdoc","0","","","","","","","","","","","","","","","","","","","","","","","","","","","","","","","","","","","","","","",""
"","demographics","survey-html-form","3","662253","0.0-3.0","34947","","{""age"":""40"",""gender"":""female"",""id"":""6739""}","","","","","","","","","","","","","","","","","","","","","","","","","","","","","","","","","","","","","","",""
"","dass10","survey-likert","4","825017","0.0-4.0","162761","","{""felt_panic"":0,""no_initiative"":0,""felt_blue"":0,""was_intolerant"":1,""nothing_forward"":0,""felt_scared"":0,""over_react"":1,""felt_worry"":0,""no_relax"":1,""no_positive"":0,""felt_annoyed"":0,""EOL_thoughts"":0}","","","","","","","","","","","","","","","","","","","","","","","","","","","","","","","","","","","","","","",""
"","pracInstructions","html-button-response","5","851002","0.0-5.0-0.0","25984","pracInstruc","0","","","","","","","","","","","","","","","","","","","","","","","","","","","","","","","","","","","","","","",""
"","pracInstructions","html-button-response","6","881722","0.0-5.0-0.1","30718","pracInstruc","0","","","","","","","","","","","","","","","","","","","","","","","","","","","","","","","","","","","","","","",""
"","pracInstructions","html-button-response","7","896438","0.0-5.0-0.2","14715","pracInstruc","0","","","","","","","","","","","","","","","","","","","","","","","","","","","","","","","","","","","","","","",""
"","pracInstructions","html-button-response","8","907563","0.0-5.0-0.3","11123","pracInstruc","0","","","","","","","","","","","","","","","","","","","","","","","","","","","","","","","","","","","","","","",""
"","pracInstructions","html-button-response","9","919609","0.0-5.0-0.4","12045","pracInstruc","0","","","","","","","","","","","","","","","","","","","","","","","","","","","","","","","","","","","","","","",""
"","pracInstructions","html-button-response","10","928384","0.0-5.0-0.5","8774","pracInstruc","0","","","","","","","","","","","","","","","","","","","","","","","","","","","","","","","","","","","","","","",""
"","pracInstructions","html-button-response","11","943102","0.0-5.0-0.6","14718","pracInstruc","0","","","","","","","","","","","","","","","","","","","","","","","","","","","","","","","","","","","","","","",""
"","","html-button-response","12","1006919","0.0-6.0","63815","<div style= ""font-size: 24px; color: white"">
                        
                            <p>First, Please hold a credit card up to your screen.</p>
                            <p>Adjust this box until it matches the size of the credit card.</p>
                            <div id=""calibration-box"" style=""
                                width: 506px;
                                height: 319px;
                                border: 2px solid white;
                                background-color: rgba(255,255,255,0.2);
                                margin: 20px auto;
                                resize: both;
                                overflow: hidden;
                            ""></div>
                        </div>
                    ","0","101","","","","","","","","","","","","","","","","","","","","","","","","","","","","","","","","","","","","","",""
"","fixation","html-keyboard-response","13","1008365","0.0-7.0-0.0","null","fixation","null","","-1","-1","","","","","","","","","","","","","","","","","","","","","","","","","","","","","","","","","","","",""
"","numerosity","html-keyboard-response","14","1008877","0.0-7.0-1.0","null","[Dot display: left=300, right=250, diff=50]","null","","-1","-1","300","250","50","","","","","","","","","","","","","","","","","","","","","","","","","","","","","","","","",""
"","confidence_first","html-keyboard-response","15","1021937","0.0-7.0-2.0","13057","Confidence judgement (first response)","","","-1","-1","","","","right","52.75","50","52.75","false","39","","","","","","","","","","","","","","","","","","","","","","","","","","",""
"","fixation","html-keyboard-response","16","1023182","0.0-8.0-0.0","null","fixation","null","","-1","-1","","","","","","","","","","","","","","","","","","","","","","","","","","","","","","","","","","","",""
"","numerosity","html-keyboard-response","17","1023689","0.0-8.0-1.0","null","[Dot display: left=250, right=300, diff=50]","null","","-1","-1","250","300","50","","","","","","","","","","","","","","","","","","","","","","","","","","","","","","","","",""
"","confidence_first","html-keyboard-response","18","1027249","0.0-8.0-2.0","3558.8999999910593","Confidence judgement (first response)","","","-1","-1","","","","right","53.75","50","53.75","true","37","","","","","","","","","","","","","","","","","","","","","","","","","","",""
"","fixation","html-keyboard-response","19","1028751","0.0-9.0-0.0","null","fixation","null","","-1","-1","","","","","","","","","","","","","","","","","","","","","","","","","","","","","","","","","","","",""
"","numerosity","html-keyboard-response","20","1029256","0.0-9.0-1.0","null","[Dot display: left=250, right=300, diff=50]","null","","-1","-1","250","300","50","","","","","","","","","","","","","","","","","","","","","","","","","","","","","","","","",""
"","confidence_first","html-keyboard-response","21","1031722","0.0-9.0-2.0","2464.4000000059605","Confidence judgement (first response)","","","-1","-1","","","","right","55.25","50","55.25","true","35","","","","","","","","","","","","","","","","","","","","","","","","","","",""
"","fixation","html-keyboard-response","22","1033024","0.0-10.0-0.0","null","fixation","null","","-1","-1","","","","","","","","","","","","","","","","","","","","","","","","","","","","","","","","","","","",""
"","numerosity","html-keyboard-response","23","1033529","0.0-10.0-1.0","null","[Dot display: left=300, right=265, diff=35]","null","","-1","-1","300","265","35","","","","","","","","","","","","","","","","","","","","","","","","","","","","","","","","",""
"","confidence_first","html-keyboard-response","24","1036638","0.0-10.0-2.0","3108.0999999940395","Confidence judgement (first response)","","","-1","-1","","","","left","55.75","55.75","50","true","31","","","","","","","","","","","","","","","","","","","","","","","","","","",""
"","fixation","html-keyboard-response","25","1037851","0.0-11.0-0.0","null","fixation","null","","-1","-1","","","","","","","","","","","","","","","","","","","","","","","","","","","","","","","","","","","",""
"","numerosity","html-keyboard-response","26","1038366","0.0-11.0-1.0","null","[Dot display: left=300, right=269, diff=31]","null","","-1","-1","300","269","31","","","","","","","","","","","","","","","","","","","","","","","","","","","","","","","","",""
"","confidence_first","html-keyboard-response","27","1040158","0.0-11.0-2.0","1790.699999988079","Confidence judgement (first response)","","","-1","-1","","","","left","56.25","56.25","50","true","27","","","","","","","","","","","","","","","","","","","","","","","","","","",""
"","fixation","html-keyboard-response","28","1041471","0.0-12.0-0.0","null","fixation","null","","-1","-1","","","","","","","","","","","","","","","","","","","","","","","","","","","","","","","","","","","",""
"","numerosity","html-keyboard-response","29","1041982","0.0-12.0-1.0","null","[Dot display: left=300, right=273, diff=27]","null","","-1","-1","300","273","27","","","","","","","","","","","","","","","","","","","","","","","","","","","","","","","","",""
"","confidence_first","html-keyboard-response","30","1043766","0.0-12.0-2.0","1781.9000000059605","Confidence judgement (first response)","","","-1","-1","","","","left","57.5","57.5","50","true","23","","","","","","","","","","","","","","","","","","","","","","","","","","",""
"","fixation","html-keyboard-response","31","1045141","0.0-13.0-0.0","null","fixation","null","","-1","-1","","","","","","","","","","","","","","","","","","","","","","","","","","","","","","","","","","","",""
"","numerosity","html-keyboard-response","32","1045653","0.0-13.0-1.0","null","[Dot display: left=277, right=300, diff=23]","null","","-1","-1","277","300","23","","","","","","","","","","","","","","","","","","","","","","","","","","","","","","","","",""
"","confidence_first","html-keyboard-response","33","1047882","0.0-13.0-2.0","2227.9000000059605","Confidence judgement (first response)","","","-1","-1","","","","right","55.75","50","55.75","true","20","","","","","","","","","","","","","","","","","","","","","","","","","","",""
"","fixation","html-keyboard-response","34","1049178","0.0-14.0-0.0","null","fixation","null","","-1","-1","","","","","","","","","","","","","","","","","","","","","","","","","","","","","","","","","","","",""
"","numerosity","html-keyboard-response","35","1049683","0.0-14.0-1.0","null","[Dot display: left=300, right=280, diff=20]","null","","-1","-1","300","280","20","","","","","","","","","","","","","","","","","","","","","","","","","","","","","","","","",""
"","confidence_first","html-keyboard-response","36","1051987","0.0-14.0-2.0","2302.5","Confidence judgement (first response)","","","-1","-1","","","","right","55.5","50","55.5","false","35","","","","","","","","","","","","","","","","","","","","","","","","","","",""
"","fixation","html-keyboard-response","37","1053388","0.0-15.0-0.0","null","fixation","null","","-1","-1","","","","","","","","","","","","","","","","","","","","","","","","","","","","","","","","","","","",""
"","numerosity","html-keyboard-response","38","1053894","0.0-15.0-1.0","null","[Dot display: left=300, right=265, diff=35]","null","","-1","-1","300","265","35","","","","","","","","","","","","","","","","","","","","","","","","","","","","","","","","",""
"","confidence_first","html-keyboard-response","39","1055761","0.0-15.0-2.0","1865","Confidence judgement (first response)","","","-1","-1","","","","left","57.25","57.25","50","true","33","","","","","","","","","","","","","","","","","","","","","","","","","","",""
"","fixation","html-keyboard-response","40","1057237","0.0-16.0-0.0","null","fixation","null","","-1","-1","","","","","","","","","","","","","","","","","","","","","","","","","","","","","","","","","","","",""
"","numerosity","html-keyboard-response","41","1057754","0.0-16.0-1.0","null","[Dot display: left=300, right=267, diff=33]","null","","-1","-1","300","267","33","","","","","","","","","","","","","","","","","","","","","","","","","","","","","","","","",""
"","confidence_first","html-keyboard-response","42","1059799","0.0-16.0-2.0","2043.2000000029802","Confidence judgement (first response)","","","-1","-1","","","","left","55.75","55.75","50","true","31","","","","","","","","","","","","","","","","","","","","","","","","","","",""
"","fixation","html-keyboard-response","43","1061277","0.0-17.0-0.0","null","fixation","null","","-1","-1","","","","","","","","","","","","","","","","","","","","","","","","","","","","","","","","","","","",""
"","numerosity","html-keyboard-response","44","1061787","0.0-17.0-1.0","null","[Dot display: left=300, right=269, diff=31]","null","","-1","-1","300","269","31","","","","","","","","","","","","","","","","","","","","","","","","","","","","","","","","",""
"","confidence_first","html-keyboard-response","45","1063499","0.0-17.0-2.0","1710","Confidence judgement (first response)","","","-1","-1","","","","left","57.25","57.25","50","true","28","","","","","","","","","","","","","","","","","","","","","","","","","","",""
"","fixation","html-keyboard-response","46","1064962","0.0-18.0-0.0","null","fixation","null","","-1","-1","","","","","","","","","","","","","","","","","","","","","","","","","","","","","","","","","","","",""
"","numerosity","html-keyboard-response","47","1065470","0.0-18.0-1.0","null","[Dot display: left=272, right=300, diff=28]","null","","-1","-1","272","300","28","","","","","","","","","","","","","","","","","","","","","","","","","","","","","","","","",""
"","confidence_first","html-keyboard-response","48","1067257","0.0-18.0-2.0","1784.3999999910593","Confidence judgement (first response)","","","-1","-1","","","","left","54.75","54.75","50","false","38","","","","","","","","","","","","","","","","","","","","","","","","","","",""
"","fixation","html-keyboard-response","49","1068627","0.0-19.0-0.0","null","fixation","null","","-1","-1","","","","","","","","","","","","","","","","","","","","","","","","","","","","","","","","","","","",""
"","numerosity","html-keyboard-response","50","1069136","0.0-19.0-1.0","null","[Dot display: left=300, right=262, diff=38]","null","","-1","-1","300","262","38","","","","","","","","","","","","","","","","","","","","","","","","","","","","","","","","",""
"","confidence_first","html-keyboard-response","51","1070748","0.0-19.0-2.0","1610.6000000089407","Confidence judgement (first response)","","","-1","-1","","","","left","56","56","50","true","36","","","","","","","","","","","","","","","","","","","","","","","","","","",""
"","fixation","html-keyboard-response","52","1072055","0.0-20.0-0.0","null","fixation","null","","-1","-1","","","","","","","","","","","","","","","","","","","","","","","","","","","","","","","","","","","",""
"","numerosity","html-keyboard-response","53","1072570","0.0-20.0-1.0","null","[Dot display: left=264, right=300, diff=36]","null","","-1","-1","264","300","36","","","","","","","","","","","","","","","","","","","","","","","","","","","","","","","","",""
"","confidence_first","html-keyboard-response","54","1074305","0.0-20.0-2.0","1733.1000000089407","Confidence judgement (first response)","","","-1","-1","","","","right","56.75","50","56.75","true","34","","","","","","","","","","","","","","","","","","","","","","","","","","",""
"","fixation","html-keyboard-response","55","1075536","0.0-21.0-0.0","null","fixation","null","","-1","-1","","","","","","","","","","","","","","","","","","","","","","","","","","","","","","","","","","","",""
"","numerosity","html-keyboard-response","56","1076053","0.0-21.0-1.0","null","[Dot display: left=300, right=266, diff=34]","null","","-1","-1","300","266","34","","","","","","","","","","","","","","","","","","","","","","","","","","","","","","","","",""
"","confidence_first","html-keyboard-response","57","1078049","0.0-21.0-2.0","1994.5","Confidence judgement (first response)","","","-1","-1","","","","left","56.25","56.25","50","true","33","","","","","","","","","","","","","","","","","","","","","","","","","","",""
"","fixation","html-keyboard-response","58","1079381","0.0-22.0-0.0","null","fixation","null","","-1","-1","","","","","","","","","","","","","","","","","","","","","","","","","","","","","","","","","","","",""
"","numerosity","html-keyboard-response","59","1079888","0.0-22.0-1.0","null","[Dot display: left=267, right=300, diff=33]","null","","-1","-1","267","300","33","","","","","","","","","","","","","","","","","","","","","","","","","","","","","","","","",""
"","confidence_first","html-keyboard-response","60","1081649","0.0-22.0-2.0","1759.4000000059605","Confidence judgement (first response)","","","-1","-1","","","","right","55.5","50","55.5","true","32","","","","","","","","","","","","","","","","","","","","","","","","","","",""
"","fixation","html-keyboard-response","61","1083087","0.0-23.0-0.0","null","fixation","null","","-1","-1","","","","","","","","","","","","","","","","","","","","","","","","","","","","","","","","","","","",""
"","numerosity","html-keyboard-response","62","1083605","0.0-23.0-1.0","null","[Dot display: left=268, right=300, diff=32]","null","","-1","-1","268","300","32","","","","","","","","","","","","","","","","","","","","","","","","","","","","","","","","",""
"","confidence_first","html-keyboard-response","63","1085640","0.0-23.0-2.0","2033.2000000029802","Confidence judgement (first response)","","","-1","-1","","","","right","52.5","50","52.5","true","30","","","","","","","","","","","","","","","","","","","","","","","","","","",""
"","fixation","html-keyboard-response","64","1087070","0.0-24.0-0.0","null","fixation","null","","-1","-1","","","","","","","","","","","","","","","","","","","","","","","","","","","","","","","","","","","",""
"","numerosity","html-keyboard-response","65","1087585","0.0-24.0-1.0","null","[Dot display: left=300, right=270, diff=30]","null","","-1","-1","300","270","30","","","","","","","","","","","","","","","","","","","","","","","","","","","","","","","","",""
"","confidence_first","html-keyboard-response","66","1089158","0.0-24.0-2.0","1570.5","Confidence judgement (first response)","","","-1","-1","","","","left","54.25","54.25","50","true","29","","","","","","","","","","","","","","","","","","","","","","","","","","",""
"","fixation","html-keyboard-response","67","1090515","0.0-25.0-0.0","null","fixation","null","","-1","-1","","","","","","","","","","","","","","","","","","","","","","","","","","","","","","","","","","","",""
"","numerosity","html-keyboard-response","68","1091028","0.0-25.0-1.0","null","[Dot display: left=271, right=300, diff=29]","null","","-1","-1","271","300","29","","","","","","","","","","","","","","","","","","","","","","","","","","","","","","","","",""
"","confidence_first","html-keyboard-response","69","1092880","0.0-25.0-2.0","1850.1000000089407","Confidence judgement (first response)","","","-1","-1","","","","right","51.75","50","51.75","true","28","","","","","","","","","","","","","","","","","","","","","","","","","","",""
"","fixation","html-keyboard-response","70","1094112","0.0-26.0-0.0","null","fixation","null","","-1","-1","","","","","","","","","","","","","","","","","","","","","","","","","","","","","","","","","","","",""
"","numerosity","html-keyboard-response","71","1094624","0.0-26.0-1.0","null","[Dot display: left=300, right=272, diff=28]","null","","-1","-1","300","272","28","","","","","","","","","","","","","","","","","","","","","","","","","","","","","","","","",""
"","confidence_first","html-keyboard-response","72","1096387","0.0-26.0-2.0","1761.5","Confidence judgement (first response)","","","-1","-1","","","","left","54.5","54.5","50","true","27","","","","","","","","","","","","","","","","","","","","","","","","","","",""
"","fixation","html-keyboard-response","73","1097790","0.0-27.0-0.0","null","fixation","null","","-1","-1","","","","","","","","","","","","","","","","","","","","","","","","","","","","","","","","","","","",""
"","numerosity","html-keyboard-response","74","1098310","0.0-27.0-1.0","null","[Dot display: left=273, right=300, diff=27]","null","","-1","-1","273","300","27","","","","","","","","","","","","","","","","","","","","","","","","","","","","","","","","",""
"","confidence_first","html-keyboard-response","75","1100169","0.0-27.0-2.0","1857.9000000059605","Confidence judgement (first response)","","","-1","-1","","","","left","53.75","53.75","50","false","31","","","","","","","","","","","","","","","","","","","","","","","","","","",""
"","fixation","html-keyboard-response","76","1101462","0.0-28.0-0.0","null","fixation","null","","-1","-1","","","","","","","","","","","","","","","","","","","","","","","","","","","","","","","","","","","",""
"","numerosity","html-keyboard-response","77","1101971","0.0-28.0-1.0","null","[Dot display: left=300, right=269, diff=31]","null","","-1","-1","300","269","31","","","","","","","","","","","","","","","","","","","","","","","","","","","","","","","","",""
"","confidence_first","html-keyboard-response","78","1103710","0.0-28.0-2.0","1737.2999999970198","Confidence judgement (first response)","","","-1","-1","","","","left","54.5","54.5","50","true","30","","","","","","","","","","","","","","","","","","","","","","","","","","",""
"","fixation","html-keyboard-response","79","1104974","0.0-29.0-0.0","null","fixation","null","","-1","-1","","","","","","","","","","","","","","","","","","","","","","","","","","","","","","","","","","","",""
"","numerosity","html-keyboard-response","80","1105479","0.0-29.0-1.0","null","[Dot display: left=270, right=300, diff=30]","null","","-1","-1","270","300","30","","","","","","","","","","","","","","","","","","","","","","","","","","","","","","","","",""
"","confidence_first","html-keyboard-response","81","1107355","0.0-29.0-2.0","1873.5999999940395","Confidence judgement (first response)","","","-1","-1","","","","left","54.75","54.75","50","false","34","","","","","","","","","","","","","","","","","","","","","","","","","","",""
"","fixation","html-keyboard-response","82","1108574","0.0-30.0-0.0","null","fixation","null","","-1","-1","","","","","","","","","","","","","","","","","","","","","","","","","","","","","","","","","","","",""
"","numerosity","html-keyboard-response","83","1109079","0.0-30.0-1.0","null","[Dot display: left=266, right=300, diff=34]","null","","-1","-1","266","300","34","","","","","","","","","","","","","","","","","","","","","","","","","","","","","","","","",""
"","confidence_first","html-keyboard-response","84","1112019","0.0-30.0-2.0","2938.7000000029802","Confidence judgement (first response)","","","-1","-1","","","","right","55.5","50","55.5","true","33","","","","","","","","","","","","","","","","","","","","","","","","","","",""
"","fixation","html-keyboard-response","85","1113413","0.0-31.0-0.0","null","fixation","null","","-1","-1","","","","","","","","","","","","","","","","","","","","","","","","","","","","","","","","","","","",""
"","numerosity","html-keyboard-response","86","1113918","0.0-31.0-1.0","null","[Dot display: left=300, right=267, diff=33]","null","","-1","-1","300","267","33","","","","","","","","","","","","","","","","","","","","","","","","","","","","","","","","",""
"","confidence_first","html-keyboard-response","87","1115629","0.0-31.0-2.0","1708.9000000059605","Confidence judgement (first response)","","","-1","-1","","","","left","54.25","54.25","50","true","32","","","","","","","","","","","","","","","","","","","","","","","","","","",""
"","expInstructions","html-button-response","88","1191840","0.0-32.0-0.0","76209","expInstruc","0","","","","","","","","","","","","","","","","","","","","","","","","","","","","","","","","","","","","","","",""
"","expInstructions","html-button-response","89","1217825","0.0-32.0-0.1","25984","expInstruc","0","","","","","","","","","","","","","","","","","","","","","","","","","","","","","","","","","","","","","","",""
"","expInstructions","html-button-response","90","1233654","0.0-32.0-0.2","15828","expInstruc","0","","","","","","","","","","","","","","","","","","","","","","","","","","","","","","","","","","","","","","",""
"","expInstructions","html-button-response","91","1253846","0.0-32.0-0.3","20191","expInstruc","0","","","","","","","","","","","","","","","","","","","","","","","","","","","","","","","","","","","","","","",""
"","expInstructions","html-button-response","92","1405573","0.0-32.0-0.4","151726","expInstruc","0","","","","","","","","","","","","","","","","","","","","","","","","","","","","","","","","","","","","","","",""
"","expInstructions","html-button-response","93","1418794","0.0-32.0-0.5","13219","expInstruc","0","","","","","","","","","","","","","","","","","","","","","","","","","","","","","","","","","","","","","","",""
"","expInstructions","html-button-response","94","1442079","0.0-32.0-0.6","23284","expInstruc","0","","","","","","","","","","","","","","","","","","","","","","","","","","","","","","","","","","","","","","",""
"","expInstructions","html-button-response","95","1462253","0.0-32.0-0.7","20173","expInstruc","0","","","","","","","","","","","","","","","","","","","","","","","","","","","","","","","","","","","","","","",""
"","expInstructions","html-button-response","96","1484719","0.0-32.0-0.8","22465","expInstruc","0","","","","","","","","","","","","","","","","","","","","","","","","","","","","","","","","","","","","","","",""
"","expInstructions","html-button-response","97","1504155","0.0-32.0-0.9","19435","expInstruc","0","","","","","","","","","","","","","","","","","","","","","","","","","","","","","","","","","","","","","","",""
"","expInstructions","html-button-response","98","1520443","0.0-32.0-0.10","16287","expInstruc","0","","","","","","","","","","","","","","","","","","","","","","","","","","","","","","","","","","","","","","",""
"","expInstructions","html-button-response","99","1540356","0.0-32.0-0.11","19912","expInstruc","0","","","","","","","","","","","","","","","","","","","","","","","","","","","","","","","","","","","","","","",""
"","expInstructions","html-button-response","100","1562821","0.0-32.0-0.12","22464","expInstruc","0","","","","","","","","","","","","","","","","","","","","","","","","","","","","","","","","","","","","","","",""
"","block_message","html-button-response","101","1904071","0.0-33.0","341249","block message","0","","","","","","","","","","","","","1","","","","","","","","","","","","","","","","","","","","","","","","","",""
"","fixation","html-keyboard-response","102","1905335","0.0-34.0-0.0","null","fixation","null","","-1","-1","","","","","","","","","","","","","","","","","","","","","","","","","","","","","","","","","","","",""
"","numerosity","html-keyboard-response","103","1905839","0.0-34.0-1.0","null","[Dot display: left=300, right=268, diff=32]","null","","-1","-1","300","268","32","","","","","","","","","","","","","","","","","","","","","","","","","","","","","","","","",""
"","confidence_first","html-keyboard-response","104","1910654","0.0-34.0-2.0","4812.5","Confidence judgement (first response)","","","-1","-1","","","","right","53.25","50","53.25","false","36","","","","","","","","","","","","","","","","","","","","","","","","","","",""
"","advice_choice","html-button-response","105","1913948","0.0-34.0-3.0-0.0","3292","[advice choice Y,N]","0","","-1","-1","","","","","","","","","","","","","","","","","","","","","","","","","","","","","","","","","","","",""
"","show_advice","html-keyboard-response","106","1914755","0.0-34.0-3.0-1.0-0.0","null","[advice: left]","null","","-1","-1","","","","","","","","","","","left","","","","","","","","","","","","","","","","","","","","","","","","",""
"","confidence_second","html-keyboard-response","107","1918162","0.0-34.0-6.0","3404.7999999970198","Confidence judgment (second response)","","","-1","-1","","","","left","94.25","94.25","50","true","36","","","","","","","","","","","","","","","","","","","","","","","","","","",""
"","consolidated-trial-data","consolidated-trial-data","108","1918164","0.0-35.0","null","consolidated-trial-data","null","","","","","","","","","","","","","","","0","0","0","300","268","32","right","53.25","false","4812.5","1","yes","left","left","94.25","true","true","3404.7999999970198","","","","","","",""
"","fixation","html-keyboard-response","109","1919522","0.0-36.0-0.0","null","fixation","null","","-1","-1","","","","","","","","","","","","","","","","","","","","","","","","","","","","","","","","","","","",""
"","numerosity","html-keyboard-response","110","1920035","0.0-36.0-1.0","null","[Dot display: left=264, right=300, diff=36]","null","","-1","-1","264","300","36","","","","","","","","","","","","","","","","","","","","","","","","","","","","","","","","",""
"","confidence_first","html-keyboard-response","111","1923265","0.0-36.0-2.0","3227.4000000059605","Confidence judgement (first response)","","","-1","-1","","","","right","52.5","50","52.5","true","35","","","","","","","","","","","","","","","","","","","","","","","","","","",""
"","advice_choice","html-button-response","112","1924992","0.0-36.0-3.0-0.0","1726","[advice choice Y,N]","0","","-1","-1","","","","","","","","","","","","","","","","","","","","","","","","","","","","","","","","","","","",""
"","show_advice","html-keyboard-response","113","1925798","0.0-36.0-3.0-1.0-0.0","null","[advice: left]","null","","-1","-1","","","","","","","","","","","left","","","","","","","","","","","","","","","","","","","","","","","","",""
"","confidence_second","html-keyboard-response","114","1927756","0.0-36.0-6.0","1957.5999999940395","Confidence judgment (second response)","","","-1","-1","","","","left","85","85","50","false","35","","","","","","","","","","","","","","","","","","","","","","","","","","",""
"","consolidated-trial-data","consolidated-trial-data","115","1927759","0.0-37.0","null","consolidated-trial-data","null","","","","","","","","","","","","","","","0","1","1","264","300","36","right","52.5","true","3227.4000000059605","1","yes","left","left","85","false","false","1957.5999999940395","","","","","","",""
"","fixation","html-keyboard-response","116","1929253","0.0-38.0-0.0","null","fixation","null","","-1","-1","","","","","","","","","","","","","","","","","","","","","","","","","","","","","","","","","","","",""
"","numerosity","html-keyboard-response","117","1929773","0.0-38.0-1.0","null","[Dot display: left=265, right=300, diff=35]","null","","-1","-1","265","300","35","","","","","","","","","","","","","","","","","","","","","","","","","","","","","","","","",""
"","confidence_first","html-keyboard-response","118","1932185","0.0-38.0-2.0","2409.5999999940395","Confidence judgement (first response)","","","-1","-1","","","","right","55.5","50","55.5","true","34","","","","","","","","","","","","","","","","","","","","","","","","","","",""
"","forced_advice_display","html-button-response","119","1935451","0.0-38.0-4.0-0.0","3265","forcedAdvice","0","","-1","-1","","","","","","","","","","","","","","","","","","","","","","","","","","","","","","","","","","","",""
"","show_advice","html-keyboard-response","120","1936254","0.0-38.0-4.0-1.0","null","[advice: right]","null","","-1","-1","","","","","","","","","","","right","","","","","","","","","","","","","","","","","","","","","","","","",""
"","confidence_second","html-keyboard-response","121","1949522","0.0-38.0-6.0","13266.90000000596","Confidence judgment (second response)","","","-1","-1","","","","right","92.5","50","92.5","true","34","","","","","","","","","","","","","","","","","","","","","","","","","","",""
"","consolidated-trial-data","consolidated-trial-data","122","1949524","0.0-39.0","null","consolidated-trial-data","null","","","","","","","","","","","","","","","0","2","2","265","300","35","right","55.5","true","2409.5999999940395","2","yes","right","right","92.5","true","true","13266.90000000596","","","","","","",""
"","fixation","html-keyboard-response","123","1950790","0.0-40.0-0.0","null","fixation","null","","-1","-1","","","","","","","","","","","","","","","","","","","","","","","","","","","","","","","","","","","",""
"","numerosity","html-keyboard-response","124","1951308","0.0-40.0-1.0","null","[Dot display: left=300, right=266, diff=34]","null","","-1","-1","300","266","34","","","","","","","","","","","","","","","","","","","","","","","","","","","","","","","","",""
"","confidence_first","html-keyboard-response","125","1953721","0.0-40.0-2.0","2411.7000000029802","Confidence judgement (first response)","","","-1","-1","","","","left","86.75","86.75","50","true","33","","","","","","","","","","","","","","","","","","","","","","","","","","",""
"","advice_choice","html-button-response","126","1955106","0.0-40.0-3.0-0.0","1384","[advice choice Y,N]","0","","-1","-1","","","","","","","","","","","","","","","","","","","","","","","","","","","","","","","","","","","",""
"","show_advice","html-keyboard-response","127","1955907","0.0-40.0-3.0-1.0-0.0","null","[advice: left]","null","","-1","-1","","","","","","","","","","","left","","","","","","","","","","","","","","","","","","","","","","","","",""
"","confidence_second","html-keyboard-response","128","1958581","0.0-40.0-6.0","2672.1000000089407","Confidence judgment (second response)","","","-1","-1","","","","left","97.25","97.25","50","true","33","","","","","","","","","","","","","","","","","","","","","","","","","","",""
"","consolidated-trial-data","consolidated-trial-data","129","1958583","0.0-41.0","null","consolidated-trial-data","null","","","","","","","","","","","","","","","0","3","3","300","266","34","left","86.75","true","2411.7000000029802","1","yes","left","left","97.25","true","true","2672.1000000089407","","","","","","",""
"","fixation","html-keyboard-response","130","1959855","0.0-42.0-0.0","null","fixation","null","","-1","-1","","","","","","","","","","","","","","","","","","","","","","","","","","","","","","","","","","","",""
"","numerosity","html-keyboard-response","131","1960364","0.0-42.0-1.0","null","[Dot display: left=267, right=300, diff=33]","null","","-1","-1","267","300","33","","","","","","","","","","","","","","","","","","","","","","","","","","","","","","","","",""
"","confidence_first","html-keyboard-response","132","1963197","0.0-42.0-2.0","2832.1000000089407","Confidence judgement (first response)","","","-1","-1","","","","left","65.5","65.5","50","false","36","","","","","","","","","","","","","","","","","","","","","","","","","","",""
"","forced_advice_display","html-button-response","133","1964441","0.0-42.0-4.0-0.0","1243","forcedAdvice","0","","-1","-1","","","","","","","","","","","","","","","","","","","","","","","","","","","","","","","","","","","",""
"","show_advice","html-keyboard-response","134","1965244","0.0-42.0-4.0-1.0","null","[advice: right]","null","","-1","-1","","","","","","","","","","","right","","","","","","","","","","","","","","","","","","","","","","","","",""
"","confidence_second","html-keyboard-response","135","1967855","0.0-42.0-6.0","2609.6000000089407","Confidence judgment (second response)","","","-1","-1","","","","right","86.5","50","86.5","true","36","","","","","","","","","","","","","","","","","","","","","","","","","","",""
"","consolidated-trial-data","consolidated-trial-data","136","1967857","0.0-43.0","null","consolidated-trial-data","null","","","","","","","","","","","","","","","0","4","4","267","300","33","left","65.5","false","2832.1000000089407","2","yes","right","right","86.5","true","true","2609.6000000089407","","","","","","",""
"","fixation","html-keyboard-response","137","1969307","0.0-44.0-0.0","null","fixation","null","","-1","-1","","","","","","","","","","","","","","","","","","","","","","","","","","","","","","","","","","","",""
"","numerosity","html-keyboard-response","138","1969817","0.0-44.0-1.0","null","[Dot display: left=264, right=300, diff=36]","null","","-1","-1","264","300","36","","","","","","","","","","","","","","","","","","","","","","","","","","","","","","","","",""
"","confidence_first","html-keyboard-response","139","1972150","0.0-44.0-2.0","2331.300000011921","Confidence judgement (first response)","","","-1","-1","","","","right","78.75","50","78.75","true","36","","","","","","","","","","","","","","","","","","","","","","","","","","",""
"","forced_advice_display","html-button-response","140","1973139","0.0-44.0-4.0-0.0","989","forcedAdvice","0","","-1","-1","","","","","","","","","","","","","","","","","","","","","","","","","","","","","","","","","","","",""
"","show_advice","html-keyboard-response","141","1973948","0.0-44.0-4.0-1.0","null","[advice: right]","null","","-1","-1","","","","","","","","","","","right","","","","","","","","","","","","","","","","","","","","","","","","",""
"","confidence_second","html-keyboard-response","142","1975661","0.0-44.0-6.0","1712.0999999940395","Confidence judgment (second response)","","","-1","-1","","","","right","93","50","93","true","36","","","","","","","","","","","","","","","","","","","","","","","","","","",""
"","consolidated-trial-data","consolidated-trial-data","143","1975663","0.0-45.0","null","consolidated-trial-data","null","","","","","","","","","","","","","","","0","5","5","264","300","36","right","78.75","true","2331.300000011921","2","yes","right","right","93","true","true","1712.0999999940395","","","","","","",""
"","fixation","html-keyboard-response","144","1977157","0.0-46.0-0.0","null","fixation","null","","-1","-1","","","","","","","","","","","","","","","","","","","","","","","","","","","","","","","","","","","",""
"","numerosity","html-keyboard-response","145","1977664","0.0-46.0-1.0","null","[Dot display: left=264, right=300, diff=36]","null","","-1","-1","264","300","36","","","","","","","","","","","","","","","","","","","","","","","","","","","","","","","","",""
"","confidence_first","html-keyboard-response","146","1979918","0.0-46.0-2.0","2252.0999999940395","Confidence judgement (first response)","","","-1","-1","","","","right","83.5","50","83.5","true","35","","","","","","","","","","","","","","","","","","","","","","","","","","",""
"","no_advice_display","html-button-response","147","1982223","0.0-46.0-5.0-0.0","2304","noAdvice","0","","-1","-1","","","","","","","","","","","","","","","","","","","","","","","","","","","","","","","","","","","",""
"","blank_screen","html-keyboard-response","148","1983024","0.0-46.0-5.0-1.0","null","blank","null","","-1","-1","","","","","","","","","","","","","","","","","","","","","","","","","","","","","","","","","","","",""
"","confidence_second","html-keyboard-response","149","1986156","0.0-46.0-6.0","3129.7999999970198","Confidence judgment (second response)","","","-1","-1","","","","right","83.5","50","83.5","true","35","","","","","","","","","","","","","","","","","","","","","","","","","","",""
"","consolidated-trial-data","consolidated-trial-data","150","1986159","0.0-47.0","null","consolidated-trial-data","null","","","","","","","","","","","","","","","0","6","6","264","300","36","right","83.5","true","2252.0999999940395","3","yes","right","right","83.5","true","true","3129.7999999970198","","","","","","",""
"","fixation","html-keyboard-response","151","1987614","0.0-48.0-0.0","null","fixation","null","","-1","-1","","","","","","","","","","","","","","","","","","","","","","","","","","","","","","","","","","","",""
"","numerosity","html-keyboard-response","152","1988125","0.0-48.0-1.0","null","[Dot display: left=265, right=300, diff=35]","null","","-1","-1","265","300","35","","","","","","","","","","","","","","","","","","","","","","","","","","","","","","","","",""
"","confidence_first","html-keyboard-response","153","1990099","0.0-48.0-2.0","1971.8999999910593","Confidence judgement (first response)","","","-1","-1","","","","left","84.25","84.25","50","false","38","","","","","","","","","","","","","","","","","","","","","","","","","","",""
"","advice_choice","html-button-response","154","1991477","0.0-48.0-3.0-0.0","1376","[advice choice Y,N]","0","","-1","-1","","","","","","","","","","","","","","","","","","","","","","","","","","","","","","","","","","","",""
"","show_advice","html-keyboard-response","155","1992292","0.0-48.0-3.0-1.0-0.0","null","[advice: right]","null","","-1","-1","","","","","","","","","","","right","","","","","","","","","","","","","","","","","","","","","","","","",""
"","confidence_second","html-keyboard-response","156","1995120","0.0-48.0-6.0","2826.2999999970198","Confidence judgment (second response)","","","-1","-1","","","","right","90","50","90","true","38","","","","","","","","","","","","","","","","","","","","","","","","","","",""
"","consolidated-trial-data","consolidated-trial-data","157","1995122","0.0-49.0","null","consolidated-trial-data","null","","","","","","","","","","","","","","","0","7","7","265","300","35","left","84.25","false","1971.8999999910593","1","yes","right","right","90","true","true","2826.2999999970198","","","","","","",""
"","fixation","html-keyboard-response","158","1996358","0.0-50.0-0.0","null","fixation","null","","-1","-1","","","","","","","","","","","","","","","","","","","","","","","","","","","","","","","","","","","",""
"","numerosity","html-keyboard-response","159","1996863","0.0-50.0-1.0","null","[Dot display: left=262, right=300, diff=38]","null","","-1","-1","262","300","38","","","","","","","","","","","","","","","","","","","","","","","","","","","","","","","","",""
"","confidence_first","html-keyboard-response","160","1998831","0.0-50.0-2.0","1965.7000000029802","Confidence judgement (first response)","","","-1","-1","","","","left","82","82","50","false","40","","","","","","","","","","","","","","","","","","","","","","","","","","",""
"","no_advice_display","html-button-response","161","2000188","0.0-50.0-5.0-0.0","1356","noAdvice","0","","-1","-1","","","","","","","","","","","","","","","","","","","","","","","","","","","","","","","","","","","",""
"","blank_screen","html-keyboard-response","162","2000992","0.0-50.0-5.0-1.0","null","blank","null","","-1","-1","","","","","","","","","","","","","","","","","","","","","","","","","","","","","","","","","","","",""
"","confidence_second","html-keyboard-response","163","2002544","0.0-50.0-6.0","1550.2000000029802","Confidence judgment (second response)","","","-1","-1","","","","left","82","82","50","false","40","","","","","","","","","","","","","","","","","","","","","","","","","","",""
"","consolidated-trial-data","consolidated-trial-data","164","2002546","0.0-51.0","null","consolidated-trial-data","null","","","","","","","","","","","","","","","0","8","8","262","300","38","left","82","false","1965.7000000029802","3","yes","right","left","82","true","false","1550.2000000029802","","","","","","",""
"","fixation","html-keyboard-response","165","2003905","0.0-52.0-0.0","null","fixation","null","","-1","-1","","","","","","","","","","","","","","","","","","","","","","","","","","","","","","","","","","","",""
"","numerosity","html-keyboard-response","166","2004412","0.0-52.0-1.0","null","[Dot display: left=300, right=260, diff=40]","null","","-1","-1","300","260","40","","","","","","","","","","","","","","","","","","","","","","","","","","","","","","","","",""
"","confidence_first","html-keyboard-response","167","2006302","0.0-52.0-2.0","1889","Confidence judgement (first response)","","","-1","-1","","","","right","80.75","50","80.75","false","43","","","","","","","","","","","","","","","","","","","","","","","","","","",""
"","advice_choice","html-button-response","168","2007369","0.0-52.0-3.0-0.0","1066","[advice choice Y,N]","0","","-1","-1","","","","","","","","","","","","","","","","","","","","","","","","","","","","","","","","","","","",""
"","show_advice","html-keyboard-response","169","2008172","0.0-52.0-3.0-1.0-0.0","null","[advice: left]","null","","-1","-1","","","","","","","","","","","left","","","","","","","","","","","","","","","","","","","","","","","","",""
"","confidence_second","html-keyboard-response","170","2009729","0.0-52.0-6.0","1555.5999999940395","Confidence judgment (second response)","","","-1","-1","","","","left","83.75","83.75","50","true","43","","","","","","","","","","","","","","","","","","","","","","","","","","",""
"","consolidated-trial-data","consolidated-trial-data","171","2009731","0.0-53.0","null","consolidated-trial-data","null","","","","","","","","","","","","","","","0","9","9","300","260","40","right","80.75","false","1889","1","yes","left","left","83.75","true","true","1555.5999999940395","","","","","","",""
"","fixation","html-keyboard-response","172","2011232","0.0-54.0-0.0","null","fixation","null","","-1","-1","","","","","","","","","","","","","","","","","","","","","","","","","","","","","","","","","","","",""
"","numerosity","html-keyboard-response","173","2011748","0.0-54.0-1.0","null","[Dot display: left=257, right=300, diff=43]","null","","-1","-1","257","300","43","","","","","","","","","","","","","","","","","","","","","","","","","","","","","","","","",""
"","confidence_first","html-keyboard-response","174","2013535","0.0-54.0-2.0","1785.300000011921","Confidence judgement (first response)","","","-1","-1","","","","right","79","50","79","true","43","","","","","","","","","","","","","","","","","","","","","","","","","","",""
"","no_advice_display","html-button-response","175","2014743","0.0-54.0-5.0-0.0","1207","noAdvice","0","","-1","-1","","","","","","","","","","","","","","","","","","","","","","","","","","","","","","","","","","","",""
"","blank_screen","html-keyboard-response","176","2015544","0.0-54.0-5.0-1.0","null","blank","null","","-1","-1","","","","","","","","","","","","","","","","","","","","","","","","","","","","","","","","","","","",""
"","confidence_second","html-keyboard-response","177","2016747","0.0-54.0-6.0","1201.6000000089407","Confidence judgment (second response)","","","-1","-1","","","","right","79","50","79","true","43","","","","","","","","","","","","","","","","","","","","","","","","","","",""
"","consolidated-trial-data","consolidated-trial-data","178","2016749","0.0-55.0","null","consolidated-trial-data","null","","","","","","","","","","","","","","","0","10","10","257","300","43","right","79","true","1785.300000011921","3","yes","left","right","79","false","true","1201.6000000089407","","","","","","",""
"","fixation","html-keyboard-response","179","2018126","0.0-56.0-0.0","null","fixation","null","","-1","-1","","","","","","","","","","","","","","","","","","","","","","","","","","","","","","","","","","","",""
"","numerosity","html-keyboard-response","180","2018631","0.0-56.0-1.0","null","[Dot display: left=257, right=300, diff=43]","null","","-1","-1","257","300","43","","","","","","","","","","","","","","","","","","","","","","","","","","","","","","","","",""
"","confidence_first","html-keyboard-response","181","2020801","0.0-56.0-2.0","2168.800000011921","Confidence judgement (first response)","","","-1","-1","","","","right","78","50","78","true","42","","","","","","","","","","","","","","","","","","","","","","","","","","",""
"","no_advice_display","html-button-response","182","2022305","0.0-56.0-5.0-0.0","1502","noAdvice","0","","-1","-1","","","","","","","","","","","","","","","","","","","","","","","","","","","","","","","","","","","",""
"","blank_screen","html-keyboard-response","183","2023114","0.0-56.0-5.0-1.0","null","blank","null","","-1","-1","","","","","","","","","","","","","","","","","","","","","","","","","","","","","","","","","","","",""
"","confidence_second","html-keyboard-response","184","2024255","0.0-56.0-6.0","1139.9000000059605","Confidence judgment (second response)","","","-1","-1","","","","right","78","50","78","true","42","","","","","","","","","","","","","","","","","","","","","","","","","","",""
"","consolidated-trial-data","consolidated-trial-data","185","2024261","0.0-57.0","null","consolidated-trial-data","null","","","","","","","","","","","","","","","0","11","11","257","300","43","right","78","true","2168.800000011921","3","yes","left","right","78","false","true","1139.9000000059605","","","","","","",""
"","fixation","html-keyboard-response","186","2025671","0.0-58.0-0.0","null","fixation","null","","-1","-1","","","","","","","","","","","","","","","","","","","","","","","","","","","","","","","","","","","",""
"","numerosity","html-keyboard-response","187","2026189","0.0-58.0-1.0","null","[Dot display: left=258, right=300, diff=42]","null","","-1","-1","258","300","42","","","","","","","","","","","","","","","","","","","","","","","","","","","","","","","","",""
"","confidence_first","html-keyboard-response","188","2028328","0.0-58.0-2.0","2136.9000000059605","Confidence judgement (first response)","","","-1","-1","","","","right","71.25","50","71.25","true","41","","","","","","","","","","","","","","","","","","","","","","","","","","",""
"","forced_advice_display","html-button-response","189","2030981","0.0-58.0-4.0-0.0","2652","forcedAdvice","0","","-1","-1","","","","","","","","","","","","","","","","","","","","","","","","","","","","","","","","","","","",""
"","show_advice","html-keyboard-response","190","2031785","0.0-58.0-4.0-1.0","null","[advice: left]","null","","-1","-1","","","","","","","","","","","left","","","","","","","","","","","","","","","","","","","","","","","","",""
"","confidence_second","html-keyboard-response","191","2033507","0.0-58.0-6.0","1721.2999999970198","Confidence judgment (second response)","","","-1","-1","","","","left","76.5","76.5","50","false","41","","","","","","","","","","","","","","","","","","","","","","","","","","",""
"","consolidated-trial-data","consolidated-trial-data","192","2033509","0.0-59.0","null","consolidated-trial-data","null","","","","","","","","","","","","","","","0","12","12","258","300","42","right","71.25","true","2136.9000000059605","2","yes","left","left","76.5","false","false","1721.2999999970198","","","","","","",""
"","attncheck","html-button-response","193","2045755","0.0-60.0","12245","attncheck","0","","","","","","","","","","","","","","","","","","","","","","","","","","","","","","","","","true","Stop","","","","",""
"","fixation","html-keyboard-response","194","2046975","0.0-61.0-0.0","null","fixation","null","","-1","-1","","","","","","","","","","","","","","","","","","","","","","","","","","","","","","","","","","","",""
"","numerosity","html-keyboard-response","195","2047485","0.0-61.0-1.0","null","[Dot display: left=259, right=300, diff=41]","null","","-1","-1","259","300","41","","","","","","","","","","","","","","","","","","","","","","","","","","","","","","","","",""
"","confidence_first","html-keyboard-response","196","2049522","0.0-61.0-2.0","2035.3999999910593","Confidence judgement (first response)","","","-1","-1","","","","right","76.75","50","76.75","true","41","","","","","","","","","","","","","","","","","","","","","","","","","","",""
"","forced_advice_display","html-button-response","197","2051027","0.0-61.0-4.0-0.0","1503","forcedAdvice","0","","-1","-1","","","","","","","","","","","","","","","","","","","","","","","","","","","","","","","","","","","",""
"","show_advice","html-keyboard-response","198","2051828","0.0-61.0-4.0-1.0","null","[advice: right]","null","","-1","-1","","","","","","","","","","","right","","","","","","","","","","","","","","","","","","","","","","","","",""
"","confidence_second","html-keyboard-response","199","2054117","0.0-61.0-6.0","2286.9000000059605","Confidence judgment (second response)","","","-1","-1","","","","right","92","50","92","true","41","","","","","","","","","","","","","","","","","","","","","","","","","","",""
"","consolidated-trial-data","consolidated-trial-data","200","2054119","0.0-62.0","null","consolidated-trial-data","null","","","","","","","","","","","","","","","0","13","13","259","300","41","right","76.75","true","2035.3999999910593","2","yes","right","right","92","true","true","2286.9000000059605","","","","","","",""
"","fixation","html-keyboard-response","201","2055538","0.0-63.0-0.0","null","fixation","null","","-1","-1","","","","","","","","","","","","","","","","","","","","","","","","","","","","","","","","","","","",""
"","numerosity","html-keyboard-response","202","2056049","0.0-63.0-1.0","null","[Dot display: left=300, right=259, diff=41]","null","","-1","-1","300","259","41","","","","","","","","","","","","","","","","","","","","","","","","","","","","","","","","",""
"","confidence_first","html-keyboard-response","203","2057921","0.0-63.0-2.0","1870.7000000029802","Confidence judgement (first response)","","","-1","-1","","","","left","83.5","83.5","50","true","40","","","","","","","","","","","","","","","","","","","","","","","","","","",""
"","no_advice_display","html-button-response","204","2065872","0.0-63.0-5.0-0.0","7950","noAdvice","0","","-1","-1","","","","","","","","","","","","","","","","","","","","","","","","","","","","","","","","","","","",""
"","blank_screen","html-keyboard-response","205","2066682","0.0-63.0-5.0-1.0","null","blank","null","","-1","-1","","","","","","","","","","","","","","","","","","","","","","","","","","","","","","","","","","","",""
"","confidence_second","html-keyboard-response","206","2069165","0.0-63.0-6.0","2480.7999999970198","Confidence judgment (second response)","","","-1","-1","","","","left","83.5","83.5","50","true","40","","","","","","","","","","","","","","","","","","","","","","","","","","",""
"","consolidated-trial-data","consolidated-trial-data","207","2069167","0.0-64.0","null","consolidated-trial-data","null","","","","","","","","","","","","","","","0","14","14","300","259","41","left","83.5","true","1870.7000000029802","3","yes","right","left","83.5","false","true","2480.7999999970198","","","","","","",""
"","block_message","html-button-response","208","2176291","0.0-65.0","107123","block message","0","","","","","","","","","","","","","2","","","","","","","","","","","","","","","","","","","","","","","","","",""
"","fixation","html-keyboard-response","209","2177598","0.0-66.0-0.0","null","fixation","null","","-1","-1","","","","","","","","","","","","","","","","","","","","","","","","","","","","","","","","","","","",""
"","numerosity","html-keyboard-response","210","2178116","0.0-66.0-1.0","null","[Dot display: left=300, right=260, diff=40]","null","","-1","-1","300","260","40","","","","","","","","","","","","","","","","","","","","","","","","","","","","","","","","",""
"","confidence_first","html-keyboard-response","211","2180601","0.0-66.0-2.0","2483.800000011921","Confidence judgement (first response)","","","-1","-1","","","","left","91","91","50","true","40","","","","","","","","","","","","","","","","","","","","","","","","","","",""
"","advice_choice","html-button-response","212","2181666","0.0-66.0-3.0-0.0","1063","[advice choice Y,N]","0","","-1","-1","","","","","","","","","","","","","","","","","","","","","","","","","","","","","","","","","","","",""
"","show_advice","html-keyboard-response","213","2182470","0.0-66.0-3.0-1.0-0.0","null","[advice: left]","null","","-1","-1","","","","","","","","","","","left","","","","","","","","","","","","","","","","","","","","","","","","",""
"","confidence_second","html-keyboard-response","214","2184236","0.0-66.0-6.0","1764.8999999910593","Confidence judgment (second response)","","","-1","-1","","","","left","97.75","97.75","50","true","40","","","","","","","","","","","","","","","","","","","","","","","","","","",""
"","consolidated-trial-data","consolidated-trial-data","215","2184238","0.0-67.0","null","consolidated-trial-data","null","","","","","","","","","","","","","","","1","0","15","300","260","40","left","91","true","2483.800000011921","1","yes","left","left","97.75","true","true","1764.8999999910593","","","","","","",""
"","fixation","html-keyboard-response","216","2185732","0.0-68.0-0.0","null","fixation","null","","-1","-1","","","","","","","","","","","","","","","","","","","","","","","","","","","","","","","","","","","",""
"","numerosity","html-keyboard-response","217","2186245","0.0-68.0-1.0","null","[Dot display: left=300, right=260, diff=40]","null","","-1","-1","300","260","40","","","","","","","","","","","","","","","","","","","","","","","","","","","","","","","","",""
"","confidence_first","html-keyboard-response","218","2187924","0.0-68.0-2.0","1677.0999999940395","Confidence judgement (first response)","","","-1","-1","","","","left","94.25","94.25","50","true","39","","","","","","","","","","","","","","","","","","","","","","","","","","",""
"","advice_choice","html-button-response","219","2189210","0.0-68.0-3.0-0.0","1285","[advice choice Y,N]","0","","-1","-1","","","","","","","","","","","","","","","","","","","","","","","","","","","","","","","","","","","",""
"","show_advice","html-keyboard-response","220","2190014","0.0-68.0-3.0-1.0-0.0","null","[advice: left]","null","","-1","-1","","","","","","","","","","","left","","","","","","","","","","","","","","","","","","","","","","","","",""
"","confidence_second","html-keyboard-response","221","2191547","0.0-68.0-6.0","1531.7999999970198","Confidence judgment (second response)","","","-1","-1","","","","left","99","99","50","true","39","","","","","","","","","","","","","","","","","","","","","","","","","","",""
"","consolidated-trial-data","consolidated-trial-data","222","2191549","0.0-69.0","null","consolidated-trial-data","null","","","","","","","","","","","","","","","1","1","16","300","260","40","left","94.25","true","1677.0999999940395","1","yes","left","left","99","true","true","1531.7999999970198","","","","","","",""
"","fixation","html-keyboard-response","223","2192858","0.0-70.0-0.0","null","fixation","null","","-1","-1","","","","","","","","","","","","","","","","","","","","","","","","","","","","","","","","","","","",""
"","numerosity","html-keyboard-response","224","2193377","0.0-70.0-1.0","null","[Dot display: left=261, right=300, diff=39]","null","","-1","-1","261","300","39","","","","","","","","","","","","","","","","","","","","","","","","","","","","","","","","",""
"","confidence_first","html-keyboard-response","225","2194941","0.0-70.0-2.0","1562.5","Confidence judgement (first response)","","","-1","-1","","","","right","90.25","50","90.25","true","39","","","","","","","","","","","","","","","","","","","","","","","","","","",""
"","forced_advice_display","html-button-response","226","2196014","0.0-70.0-4.0-0.0","1071","forcedAdvice","0","","-1","-1","","","","","","","","","","","","","","","","","","","","","","","","","","","","","","","","","","","",""
"","show_advice","html-keyboard-response","227","2196830","0.0-70.0-4.0-1.0","null","[advice: right]","null","","-1","-1","","","","","","","","","","","right","","","","","","","","","","","","","","","","","","","","","","","","",""
"","confidence_second","html-keyboard-response","228","2198615","0.0-70.0-6.0","1783.7999999970198","Confidence judgment (second response)","","","-1","-1","","","","right","97","50","97","true","39","","","","","","","","","","","","","","","","","","","","","","","","","","",""
"","consolidated-trial-data","consolidated-trial-data","229","2198618","0.0-71.0","null","consolidated-trial-data","null","","","","","","","","","","","","","","","1","2","17","261","300","39","right","90.25","true","1562.5","2","yes","right","right","97","true","true","1783.7999999970198","","","","","","",""
"","fixation","html-keyboard-response","230","2200132","0.0-72.0-0.0","null","fixation","null","","-1","-1","","","","","","","","","","","","","","","","","","","","","","","","","","","","","","","","","","","",""
"","numerosity","html-keyboard-response","231","2200650","0.0-72.0-1.0","null","[Dot display: left=261, right=300, diff=39]","null","","-1","-1","261","300","39","","","","","","","","","","","","","","","","","","","","","","","","","","","","","","","","",""
"","confidence_first","html-keyboard-response","232","2202676","0.0-72.0-2.0","2024","Confidence judgement (first response)","","","-1","-1","","","","left","81.75","81.75","50","false","41","","","","","","","","","","","","","","","","","","","","","","","","","","",""
"","advice_choice","html-button-response","233","2204077","0.0-72.0-3.0-0.0","1400","[advice choice Y,N]","0","","-1","-1","","","","","","","","","","","","","","","","","","","","","","","","","","","","","","","","","","","",""
"","show_advice","html-keyboard-response","234","2204879","0.0-72.0-3.0-1.0-0.0","null","[advice: right]","null","","-1","-1","","","","","","","","","","","right","","","","","","","","","","","","","","","","","","","","","","","","",""
"","confidence_second","html-keyboard-response","235","2206393","0.0-72.0-6.0","1512.199999988079","Confidence judgment (second response)","","","-1","-1","","","","right","80","50","80","true","41","","","","","","","","","","","","","","","","","","","","","","","","","","",""
"","consolidated-trial-data","consolidated-trial-data","236","2206395","0.0-73.0","null","consolidated-trial-data","null","","","","","","","","","","","","","","","1","3","18","261","300","39","left","81.75","false","2024","1","yes","right","right","80","true","true","1512.199999988079","","","","","","",""
"","fixation","html-keyboard-response","237","2207736","0.0-74.0-0.0","null","fixation","null","","-1","-1","","","","","","","","","","","","","","","","","","","","","","","","","","","","","","","","","","","",""
"","numerosity","html-keyboard-response","238","2208245","0.0-74.0-1.0","null","[Dot display: left=300, right=259, diff=41]","null","","-1","-1","300","259","41","","","","","","","","","","","","","","","","","","","","","","","","","","","","","","","","",""
"","confidence_first","html-keyboard-response","239","2210483","0.0-74.0-2.0","2235.5999999940395","Confidence judgement (first response)","","","-1","-1","","","","left","89.5","89.5","50","true","40","","","","","","","","","","","","","","","","","","","","","","","","","","",""
"","forced_advice_display","html-button-response","240","2211848","0.0-74.0-4.0-0.0","1363","forcedAdvice","0","","-1","-1","","","","","","","","","","","","","","","","","","","","","","","","","","","","","","","","","","","",""
"","show_advice","html-keyboard-response","241","2212650","0.0-74.0-4.0-1.0","null","[advice: left]","null","","-1","-1","","","","","","","","","","","left","","","","","","","","","","","","","","","","","","","","","","","","",""
"","confidence_second","html-keyboard-response","242","2214271","0.0-74.0-6.0","1620","Confidence judgment (second response)","","","-1","-1","","","","left","96.25","96.25","50","true","40","","","","","","","","","","","","","","","","","","","","","","","","","","",""
"","consolidated-trial-data","consolidated-trial-data","243","2214273","0.0-75.0","null","consolidated-trial-data","null","","","","","","","","","","","","","","","1","4","19","300","259","41","left","89.5","true","2235.5999999940395","2","yes","left","left","96.25","true","true","1620","","","","","","",""
"","fixation","html-keyboard-response","244","2215649","0.0-76.0-0.0","null","fixation","null","","-1","-1","","","","","","","","","","","","","","","","","","","","","","","","","","","","","","","","","","","",""
"","numerosity","html-keyboard-response","245","2216168","0.0-76.0-1.0","null","[Dot display: left=300, right=260, diff=40]","null","","-1","-1","300","260","40","","","","","","","","","","","","","","","","","","","","","","","","","","","","","","","","",""
"","confidence_first","html-keyboard-response","246","2217864","0.0-76.0-2.0","1694.3999999910593","Confidence judgement (first response)","","","-1","-1","","","","left","90.25","90.25","50","true","40","","","","","","","","","","","","","","","","","","","","","","","","","","",""
"","forced_advice_display","html-button-response","247","2219004","0.0-76.0-4.0-0.0","1139","forcedAdvice","0","","-1","-1","","","","","","","","","","","","","","","","","","","","","","","","","","","","","","","","","","","",""
"","show_advice","html-keyboard-response","248","2219806","0.0-76.0-4.0-1.0","null","[advice: left]","null","","-1","-1","","","","","","","","","","","left","","","","","","","","","","","","","","","","","","","","","","","","",""
"","confidence_second","html-keyboard-response","249","2249136","0.0-76.0-6.0","29328.5","Confidence judgment (second response)","","","-1","-1","","","","left","98","98","50","true","40","","","","","","","","","","","","","","","","","","","","","","","","","","",""
"","consolidated-trial-data","consolidated-trial-data","250","2249153","0.0-77.0","null","consolidated-trial-data","null","","","","","","","","","","","","","","","1","5","20","300","260","40","left","90.25","true","1694.3999999910593","2","yes","left","left","98","true","true","29328.5","","","","","","",""
"","fixation","html-keyboard-response","251","2250392","0.0-78.0-0.0","null","fixation","null","","-1","-1","","","","","","","","","","","","","","","","","","","","","","","","","","","","","","","","","","","",""
"","numerosity","html-keyboard-response","252","2250909","0.0-78.0-1.0","null","[Dot display: left=260, right=300, diff=40]","null","","-1","-1","260","300","40","","","","","","","","","","","","","","","","","","","","","","","","","","","","","","","","",""
"","confidence_first","html-keyboard-response","253","2253015","0.0-78.0-2.0","2104.9000000059605","Confidence judgement (first response)","","","-1","-1","","","","right","75.25","50","75.25","true","39","","","","","","","","","","","","","","","","","","","","","","","","","","",""
"","no_advice_display","html-button-response","254","2254238","0.0-78.0-5.0-0.0","1222","noAdvice","0","","-1","-1","","","","","","","","","","","","","","","","","","","","","","","","","","","","","","","","","","","",""
"","blank_screen","html-keyboard-response","255","2255041","0.0-78.0-5.0-1.0","null","blank","null","","-1","-1","","","","","","","","","","","","","","","","","","","","","","","","","","","","","","","","","","","",""
"","confidence_second","html-keyboard-response","256","2256073","0.0-78.0-6.0","1031.1000000089407","Confidence judgment (second response)","","","-1","-1","","","","right","75.25","50","75.25","true","39","","","","","","","","","","","","","","","","","","","","","","","","","","",""
"","consolidated-trial-data","consolidated-trial-data","257","2256086","0.0-79.0","null","consolidated-trial-data","null","","","","","","","","","","","","","","","1","6","21","260","300","40","right","75.25","true","2104.9000000059605","3","yes","left","right","75.25","false","true","1031.1000000089407","","","","","","",""
"","fixation","html-keyboard-response","258","2257533","0.0-80.0-0.0","null","fixation","null","","-1","-1","","","","","","","","","","","","","","","","","","","","","","","","","","","","","","","","","","","",""
"","numerosity","html-keyboard-response","259","2258043","0.0-80.0-1.0","null","[Dot display: left=261, right=300, diff=39]","null","","-1","-1","261","300","39","","","","","","","","","","","","","","","","","","","","","","","","","","","","","","","","",""
"","confidence_first","html-keyboard-response","260","2259751","0.0-80.0-2.0","1705.9000000059605","Confidence judgement (first response)","","","-1","-1","","","","left","85.25","85.25","50","false","41","","","","","","","","","","","","","","","","","","","","","","","","","","",""
"","advice_choice","html-button-response","261","2260687","0.0-80.0-3.0-0.0","935","[advice choice Y,N]","0","","-1","-1","","","","","","","","","","","","","","","","","","","","","","","","","","","","","","","","","","","",""
"","show_advice","html-keyboard-response","262","2261491","0.0-80.0-3.0-1.0-0.0","null","[advice: right]","null","","-1","-1","","","","","","","","","","","right","","","","","","","","","","","","","","","","","","","","","","","","",""
"","confidence_second","html-keyboard-response","263","2263167","0.0-80.0-6.0","1674.2000000029802","Confidence judgment (second response)","","","-1","-1","","","","right","85","50","85","true","41","","","","","","","","","","","","","","","","","","","","","","","","","","",""
"","consolidated-trial-data","consolidated-trial-data","264","2263170","0.0-81.0","null","consolidated-trial-data","null","","","","","","","","","","","","","","","1","7","22","261","300","39","left","85.25","false","1705.9000000059605","1","yes","right","right","85","true","true","1674.2000000029802","","","","","","",""
"","fixation","html-keyboard-response","265","2264393","0.0-82.0-0.0","null","fixation","null","","-1","-1","","","","","","","","","","","","","","","","","","","","","","","","","","","","","","","","","","","",""
"","numerosity","html-keyboard-response","266","2264911","0.0-82.0-1.0","null","[Dot display: left=259, right=300, diff=41]","null","","-1","-1","259","300","41","","","","","","","","","","","","","","","","","","","","","","","","","","","","","","","","",""
"","confidence_first","html-keyboard-response","267","2266830","0.0-82.0-2.0","1917.5","Confidence judgement (first response)","","","-1","-1","","","","right","86.75","50","86.75","true","41","","","","","","","","","","","","","","","","","","","","","","","","","","",""
"","no_advice_display","html-button-response","268","2268009","0.0-82.0-5.0-0.0","1178","noAdvice","0","","-1","-1","","","","","","","","","","","","","","","","","","","","","","","","","","","","","","","","","","","",""
"","blank_screen","html-keyboard-response","269","2268811","0.0-82.0-5.0-1.0","null","blank","null","","-1","-1","","","","","","","","","","","","","","","","","","","","","","","","","","","","","","","","","","","",""
"","confidence_second","html-keyboard-response","270","2269589","0.0-82.0-6.0","776.9000000059605","Confidence judgment (second response)","","","-1","-1","","","","right","86.75","50","86.75","true","41","","","","","","","","","","","","","","","","","","","","","","","","","","",""
"","consolidated-trial-data","consolidated-trial-data","271","2269591","0.0-83.0","null","consolidated-trial-data","null","","","","","","","","","","","","","","","1","8","23","259","300","41","right","86.75","true","1917.5","3","yes","right","right","86.75","true","true","776.9000000059605","","","","","","",""
"","fixation","html-keyboard-response","272","2270968","0.0-84.0-0.0","null","fixation","null","","-1","-1","","","","","","","","","","","","","","","","","","","","","","","","","","","","","","","","","","","",""
"","numerosity","html-keyboard-response","273","2271477","0.0-84.0-1.0","null","[Dot display: left=300, right=259, diff=41]","null","","-1","-1","300","259","41","","","","","","","","","","","","","","","","","","","","","","","","","","","","","","","","",""
"","confidence_first","html-keyboard-response","274","2273054","0.0-84.0-2.0","1575.7999999970198","Confidence judgement (first response)","","","-1","-1","","","","left","80.75","80.75","50","true","40","","","","","","","","","","","","","","","","","","","","","","","","","","",""
"","advice_choice","html-button-response","275","2276198","0.0-84.0-3.0-0.0","3142","[advice choice Y,N]","0","","-1","-1","","","","","","","","","","","","","","","","","","","","","","","","","","","","","","","","","","","",""
"","show_advice","html-keyboard-response","276","2277000","0.0-84.0-3.0-1.0-0.0","null","[advice: left]","null","","-1","-1","","","","","","","","","","","left","","","","","","","","","","","","","","","","","","","","","","","","",""
"","confidence_second","html-keyboard-response","277","2278283","0.0-84.0-6.0","1281.2999999970198","Confidence judgment (second response)","","","-1","-1","","","","left","92.25","92.25","50","true","40","","","","","","","","","","","","","","","","","","","","","","","","","","",""
"","consolidated-trial-data","consolidated-trial-data","278","2278285","0.0-85.0","null","consolidated-trial-data","null","","","","","","","","","","","","","","","1","9","24","300","259","41","left","80.75","true","1575.7999999970198","1","yes","left","left","92.25","true","true","1281.2999999970198","","","","","","",""
"","fixation","html-keyboard-response","279","2279686","0.0-86.0-0.0","null","fixation","null","","-1","-1","","","","","","","","","","","","","","","","","","","","","","","","","","","","","","","","","","","",""
"","numerosity","html-keyboard-response","280","2280203","0.0-86.0-1.0","null","[Dot display: left=260, right=300, diff=40]","null","","-1","-1","260","300","40","","","","","","","","","","","","","","","","","","","","","","","","","","","","","","","","",""
"","confidence_first","html-keyboard-response","281","2281746","0.0-86.0-2.0","1542.0999999940395","Confidence judgement (first response)","","","-1","-1","","","","left","84.5","84.5","50","false","42","","","","","","","","","","","","","","","","","","","","","","","","","","",""
"","no_advice_display","html-button-response","282","2282762","0.0-86.0-5.0-0.0","1014","noAdvice","0","","-1","-1","","","","","","","","","","","","","","","","","","","","","","","","","","","","","","","","","","","",""
"","blank_screen","html-keyboard-response","283","2283563","0.0-86.0-5.0-1.0","null","blank","null","","-1","-1","","","","","","","","","","","","","","","","","","","","","","","","","","","","","","","","","","","",""
"","confidence_second","html-keyboard-response","284","2284895","0.0-86.0-6.0","1329","Confidence judgment (second response)","","","-1","-1","","","","left","84.5","84.5","50","false","42","","","","","","","","","","","","","","","","","","","","","","","","","","",""
"","consolidated-trial-data","consolidated-trial-data","285","2284897","0.0-87.0","null","consolidated-trial-data","null","","","","","","","","","","","","","","","1","10","25","260","300","40","left","84.5","false","1542.0999999940395","3","yes","left","left","84.5","false","false","1329","","","","","","",""
"","fixation","html-keyboard-response","286","2286279","0.0-88.0-0.0","null","fixation","null","","-1","-1","","","","","","","","","","","","","","","","","","","","","","","","","","","","","","","","","","","",""
"","numerosity","html-keyboard-response","287","2286794","0.0-88.0-1.0","null","[Dot display: left=300, right=258, diff=42]","null","","-1","-1","300","258","42","","","","","","","","","","","","","","","","","","","","","","","","","","","","","","","","",""
"","confidence_first","html-keyboard-response","288","2288822","0.0-88.0-2.0","2026.2000000029802","Confidence judgement (first response)","","","-1","-1","","","","left","88.75","88.75","50","true","41","","","","","","","","","","","","","","","","","","","","","","","","","","",""
"","no_advice_display","html-button-response","289","2290116","0.0-88.0-5.0-0.0","1293","noAdvice","0","","-1","-1","","","","","","","","","","","","","","","","","","","","","","","","","","","","","","","","","","","",""
"","blank_screen","html-keyboard-response","290","2290918","0.0-88.0-5.0-1.0","null","blank","null","","-1","-1","","","","","","","","","","","","","","","","","","","","","","","","","","","","","","","","","","","",""
"","confidence_second","html-keyboard-response","291","2292512","0.0-88.0-6.0","1591.9000000059605","Confidence judgment (second response)","","","-1","-1","","","","left","88.75","88.75","50","true","41","","","","","","","","","","","","","","","","","","","","","","","","","","",""
"","consolidated-trial-data","consolidated-trial-data","292","2292520","0.0-89.0","null","consolidated-trial-data","null","","","","","","","","","","","","","","","1","11","26","300","258","42","left","88.75","true","2026.2000000029802","3","yes","left","left","88.75","true","true","1591.9000000059605","","","","","","",""
"","fixation","html-keyboard-response","293","2293879","0.0-90.0-0.0","null","fixation","null","","-1","-1","","","","","","","","","","","","","","","","","","","","","","","","","","","","","","","","","","","",""
"","numerosity","html-keyboard-response","294","2294388","0.0-90.0-1.0","null","[Dot display: left=259, right=300, diff=41]","null","","-1","-1","259","300","41","","","","","","","","","","","","","","","","","","","","","","","","","","","","","","","","",""
"","confidence_first","html-keyboard-response","295","2296029","0.0-90.0-2.0","1639.7999999970198","Confidence judgement (first response)","","","-1","-1","","","","right","79.5","50","79.5","true","41","","","","","","","","","","","","","","","","","","","","","","","","","","",""
"","forced_advice_display","html-button-response","296","2297435","0.0-90.0-4.0-0.0","1405","forcedAdvice","0","","-1","-1","","","","","","","","","","","","","","","","","","","","","","","","","","","","","","","","","","","",""
"","show_advice","html-keyboard-response","297","2298236","0.0-90.0-4.0-1.0","null","[advice: right]","null","","-1","-1","","","","","","","","","","","right","","","","","","","","","","","","","","","","","","","","","","","","",""
"","confidence_second","html-keyboard-response","298","2299644","0.0-90.0-6.0","1407.0999999940395","Confidence judgment (second response)","","","-1","-1","","","","right","94.5","50","94.5","true","41","","","","","","","","","","","","","","","","","","","","","","","","","","",""
"","consolidated-trial-data","consolidated-trial-data","299","2299654","0.0-91.0","null","consolidated-trial-data","null","","","","","","","","","","","","","","","1","12","27","259","300","41","right","79.5","true","1639.7999999970198","2","yes","right","right","94.5","true","true","1407.0999999940395","","","","","","",""
"","fixation","html-keyboard-response","300","2300884","0.0-92.0-0.0","null","fixation","null","","-1","-1","","","","","","","","","","","","","","","","","","","","","","","","","","","","","","","","","","","",""
"","numerosity","html-keyboard-response","301","2301392","0.0-92.0-1.0","null","[Dot display: left=259, right=300, diff=41]","null","","-1","-1","259","300","41","","","","","","","","","","","","","","","","","","","","","","","","","","","","","","","","",""
"","confidence_first","html-keyboard-response","302","2303119","0.0-92.0-2.0","1725.699999988079","Confidence judgement (first response)","","","-1","-1","","","","right","85.75","50","85.75","true","41","","","","","","","","","","","","","","","","","","","","","","","","","","",""
"","forced_advice_display","html-button-response","303","2304299","0.0-92.0-4.0-0.0","1179","forcedAdvice","0","","-1","-1","","","","","","","","","","","","","","","","","","","","","","","","","","","","","","","","","","","",""
"","show_advice","html-keyboard-response","304","2305100","0.0-92.0-4.0-1.0","null","[advice: right]","null","","-1","-1","","","","","","","","","","","right","","","","","","","","","","","","","","","","","","","","","","","","",""
"","confidence_second","html-keyboard-response","305","2306535","0.0-92.0-6.0","1432.9000000059605","Confidence judgment (second response)","","","-1","-1","","","","right","96","50","96","true","41","","","","","","","","","","","","","","","","","","","","","","","","","","",""
"","consolidated-trial-data","consolidated-trial-data","306","2306538","0.0-93.0","null","consolidated-trial-data","null","","","","","","","","","","","","","","","1","13","28","259","300","41","right","85.75","true","1725.699999988079","2","yes","right","right","96","true","true","1432.9000000059605","","","","","","",""
"","fixation","html-keyboard-response","307","2307960","0.0-94.0-0.0","null","fixation","null","","-1","-1","","","","","","","","","","","","","","","","","","","","","","","","","","","","","","","","","","","",""
"","numerosity","html-keyboard-response","308","2308479","0.0-94.0-1.0","null","[Dot display: left=300, right=259, diff=41]","null","","-1","-1","300","259","41","","","","","","","","","","","","","","","","","","","","","","","","","","","","","","","","",""
"","confidence_first","html-keyboard-response","309","2336119","0.0-94.0-2.0","27638.39999999106","Confidence judgement (first response)","","","-1","-1","","","","left","86.5","86.5","50","true","40","","","","","","","","","","","","","","","","","","","","","","","","","","",""
"","no_advice_display","html-button-response","310","2337533","0.0-94.0-5.0-0.0","1413","noAdvice","0","","-1","-1","","","","","","","","","","","","","","","","","","","","","","","","","","","","","","","","","","","",""
"","blank_screen","html-keyboard-response","311","2338346","0.0-94.0-5.0-1.0","null","blank","null","","-1","-1","","","","","","","","","","","","","","","","","","","","","","","","","","","","","","","","","","","",""
"","confidence_second","html-keyboard-response","312","2339915","0.0-94.0-6.0","1567.0999999940395","Confidence judgment (second response)","","","-1","-1","","","","left","86.5","86.5","50","true","40","","","","","","","","","","","","","","","","","","","","","","","","","","",""
"","consolidated-trial-data","consolidated-trial-data","313","2339917","0.0-95.0","null","consolidated-trial-data","null","","","","","","","","","","","","","","","1","14","29","300","259","41","left","86.5","true","27638.39999999106","3","yes","right","left","86.5","false","true","1567.0999999940395","","","","","","",""
"","block_message","html-button-response","314","2427208","0.0-96.0","87289","block message","0","","","","","","","","","","","","","3","","","","","","","","","","","","","","","","","","","","","","","","","",""
"","fixation","html-keyboard-response","315","2428623","0.0-97.0-0.0","null","fixation","null","","-1","-1","","","","","","","","","","","","","","","","","","","","","","","","","","","","","","","","","","","",""
"","numerosity","html-keyboard-response","316","2429136","0.0-97.0-1.0","null","[Dot display: left=300, right=260, diff=40]","null","","-1","-1","300","260","40","","","","","","","","","","","","","","","","","","","","","","","","","","","","","","","","",""
"","confidence_first","html-keyboard-response","317","2431141","0.0-97.0-2.0","2004","Confidence judgement (first response)","","","-1","-1","","","","right","65.5","50","65.5","false","42","","","","","","","","","","","","","","","","","","","","","","","","","","",""
"","advice_choice","html-button-response","318","2432489","0.0-97.0-3.0-0.0","1346","[advice choice Y,N]","0","","-1","-1","","","","","","","","","","","","","","","","","","","","","","","","","","","","","","","","","","","",""
"","show_advice","html-keyboard-response","319","2433291","0.0-97.0-3.0-1.0-0.0","null","[advice: left]","null","","-1","-1","","","","","","","","","","","left","","","","","","","","","","","","","","","","","","","","","","","","",""
"","confidence_second","html-keyboard-response","320","2434894","0.0-97.0-6.0","1602.2000000029802","Confidence judgment (second response)","","","-1","-1","","","","left","83","83","50","true","42","","","","","","","","","","","","","","","","","","","","","","","","","","",""
"","consolidated-trial-data","consolidated-trial-data","321","2434909","0.0-98.0","null","consolidated-trial-data","null","","","","","","","","","","","","","","","2","0","30","300","260","40","right","65.5","false","2004","1","yes","left","left","83","true","true","1602.2000000029802","","","","","","",""
"","fixation","html-keyboard-response","322","2436163","0.0-99.0-0.0","null","fixation","null","","-1","-1","","","","","","","","","","","","","","","","","","","","","","","","","","","","","","","","","","","",""
"","numerosity","html-keyboard-response","323","2436676","0.0-99.0-1.0","null","[Dot display: left=300, right=258, diff=42]","null","","-1","-1","300","258","42","","","","","","","","","","","","","","","","","","","","","","","","","","","","","","","","",""
"","confidence_first","html-keyboard-response","324","2438105","0.0-99.0-2.0","1427.7999999970198","Confidence judgement (first response)","","","-1","-1","","","","left","79.75","79.75","50","true","41","","","","","","","","","","","","","","","","","","","","","","","","","","",""
"","advice_choice","html-button-response","325","2439564","0.0-99.0-3.0-0.0","1458","[advice choice Y,N]","0","","-1","-1","","","","","","","","","","","","","","","","","","","","","","","","","","","","","","","","","","","",""
"","show_advice","html-keyboard-response","326","2440367","0.0-99.0-3.0-1.0-0.0","null","[advice: left]","null","","-1","-1","","","","","","","","","","","left","","","","","","","","","","","","","","","","","","","","","","","","",""
"","confidence_second","html-keyboard-response","327","2442247","0.0-99.0-6.0","1878.9000000059605","Confidence judgment (second response)","","","-1","-1","","","","left","94.25","94.25","50","true","41","","","","","","","","","","","","","","","","","","","","","","","","","","",""
"","consolidated-trial-data","consolidated-trial-data","328","2442249","0.0-100.0","null","consolidated-trial-data","null","","","","","","","","","","","","","","","2","1","31","300","258","42","left","79.75","true","1427.7999999970198","1","yes","left","left","94.25","true","true","1878.9000000059605","","","","","","",""
"","fixation","html-keyboard-response","329","2443588","0.0-101.0-0.0","null","fixation","null","","-1","-1","","","","","","","","","","","","","","","","","","","","","","","","","","","","","","","","","","","",""
"","numerosity","html-keyboard-response","330","2444108","0.0-101.0-1.0","null","[Dot display: left=259, right=300, diff=41]","null","","-1","-1","259","300","41","","","","","","","","","","","","","","","","","","","","","","","","","","","","","","","","",""
"","confidence_first","html-keyboard-response","331","2445520","0.0-101.0-2.0","1410.199999988079","Confidence judgement (first response)","","","-1","-1","","","","right","77.5","50","77.5","true","41","","","","","","","","","","","","","","","","","","","","","","","","","","",""
"","forced_advice_display","html-button-response","332","2446389","0.0-101.0-4.0-0.0","868","forcedAdvice","0","","-1","-1","","","","","","","","","","","","","","","","","","","","","","","","","","","","","","","","","","","",""
"","show_advice","html-keyboard-response","333","2447191","0.0-101.0-4.0-1.0","null","[advice: right]","null","","-1","-1","","","","","","","","","","","right","","","","","","","","","","","","","","","","","","","","","","","","",""
"","confidence_second","html-keyboard-response","334","2448818","0.0-101.0-6.0","1625.6000000089407","Confidence judgment (second response)","","","-1","-1","","","","right","96.75","50","96.75","true","41","","","","","","","","","","","","","","","","","","","","","","","","","","",""
"","consolidated-trial-data","consolidated-trial-data","335","2448820","0.0-102.0","null","consolidated-trial-data","null","","","","","","","","","","","","","","","2","2","32","259","300","41","right","77.5","true","1410.199999988079","2","yes","right","right","96.75","true","true","1625.6000000089407","","","","","","",""
"","fixation","html-keyboard-response","336","2450124","0.0-103.0-0.0","null","fixation","null","","-1","-1","","","","","","","","","","","","","","","","","","","","","","","","","","","","","","","","","","","",""
"","numerosity","html-keyboard-response","337","2450629","0.0-103.0-1.0","null","[Dot display: left=300, right=259, diff=41]","null","","-1","-1","300","259","41","","","","","","","","","","","","","","","","","","","","","","","","","","","","","","","","",""
"","confidence_first","html-keyboard-response","338","2452189","0.0-103.0-2.0","1557.2000000029802","Confidence judgement (first response)","","","-1","-1","","","","left","86","86","50","true","41","","","","","","","","","","","","","","","","","","","","","","","","","","",""
"","advice_choice","html-button-response","339","2453372","0.0-103.0-3.0-0.0","1182","[advice choice Y,N]","0","","-1","-1","","","","","","","","","","","","","","","","","","","","","","","","","","","","","","","","","","","",""
"","show_advice","html-keyboard-response","340","2454174","0.0-103.0-3.0-1.0-0.0","null","[advice: left]","null","","-1","-1","","","","","","","","","","","left","","","","","","","","","","","","","","","","","","","","","","","","",""
"","confidence_second","html-keyboard-response","341","2455811","0.0-103.0-6.0","1635.6000000089407","Confidence judgment (second response)","","","-1","-1","","","","left","97.25","97.25","50","true","41","","","","","","","","","","","","","","","","","","","","","","","","","","",""
"","consolidated-trial-data","consolidated-trial-data","342","2455813","0.0-104.0","null","consolidated-trial-data","null","","","","","","","","","","","","","","","2","3","33","300","259","41","left","86","true","1557.2000000029802","1","yes","left","left","97.25","true","true","1635.6000000089407","","","","","","",""
"","fixation","html-keyboard-response","343","2457232","0.0-105.0-0.0","null","fixation","null","","-1","-1","","","","","","","","","","","","","","","","","","","","","","","","","","","","","","","","","","","",""
"","numerosity","html-keyboard-response","344","2457750","0.0-105.0-1.0","null","[Dot display: left=259, right=300, diff=41]","null","","-1","-1","259","300","41","","","","","","","","","","","","","","","","","","","","","","","","","","","","","","","","",""
"","confidence_first","html-keyboard-response","345","2459651","0.0-105.0-2.0","1899.5999999940395","Confidence judgement (first response)","","","-1","-1","","","","right","71.5","50","71.5","true","40","","","","","","","","","","","","","","","","","","","","","","","","","","",""
"","forced_advice_display","html-button-response","346","2460770","0.0-105.0-4.0-0.0","1118","forcedAdvice","0","","-1","-1","","","","","","","","","","","","","","","","","","","","","","","","","","","","","","","","","","","",""
"","show_advice","html-keyboard-response","347","2461573","0.0-105.0-4.0-1.0","null","[advice: left]","null","","-1","-1","","","","","","","","","","","left","","","","","","","","","","","","","","","","","","","","","","","","",""
"","confidence_second","html-keyboard-response","348","2463139","0.0-105.0-6.0","1564.2999999970198","Confidence judgment (second response)","","","-1","-1","","","","left","91.75","91.75","50","false","40","","","","","","","","","","","","","","","","","","","","","","","","","","",""
"","consolidated-trial-data","consolidated-trial-data","349","2463142","0.0-106.0","null","consolidated-trial-data","null","","","","","","","","","","","","","","","2","4","34","259","300","41","right","71.5","true","1899.5999999940395","2","yes","left","left","91.75","false","false","1564.2999999970198","","","","","","",""
"","fixation","html-keyboard-response","350","2464568","0.0-107.0-0.0","null","fixation","null","","-1","-1","","","","","","","","","","","","","","","","","","","","","","","","","","","","","","","","","","","",""
"","numerosity","html-keyboard-response","351","2465073","0.0-107.0-1.0","null","[Dot display: left=260, right=300, diff=40]","null","","-1","-1","260","300","40","","","","","","","","","","","","","","","","","","","","","","","","","","","","","","","","",""
"","confidence_first","html-keyboard-response","352","2466433","0.0-107.0-2.0","1357.2999999970198","Confidence judgement (first response)","","","-1","-1","","","","left","77.25","77.25","50","false","42","","","","","","","","","","","","","","","","","","","","","","","","","","",""
"","forced_advice_display","html-button-response","353","2467710","0.0-107.0-4.0-0.0","1276","forcedAdvice","0","","-1","-1","","","","","","","","","","","","","","","","","","","","","","","","","","","","","","","","","","","",""
"","show_advice","html-keyboard-response","354","2468512","0.0-107.0-4.0-1.0","null","[advice: right]","null","","-1","-1","","","","","","","","","","","right","","","","","","","","","","","","","","","","","","","","","","","","",""
"","confidence_second","html-keyboard-response","355","2469796","0.0-107.0-6.0","1282.0999999940395","Confidence judgment (second response)","","","-1","-1","","","","right","91.25","50","91.25","true","42","","","","","","","","","","","","","","","","","","","","","","","","","","",""
"","consolidated-trial-data","consolidated-trial-data","356","2469810","0.0-108.0","null","consolidated-trial-data","null","","","","","","","","","","","","","","","2","5","35","260","300","40","left","77.25","false","1357.2999999970198","2","yes","right","right","91.25","true","true","1282.0999999940395","","","","","","",""
"","fixation","html-keyboard-response","357","2471217","0.0-109.0-0.0","null","fixation","null","","-1","-1","","","","","","","","","","","","","","","","","","","","","","","","","","","","","","","","","","","",""
"","numerosity","html-keyboard-response","358","2471725","0.0-109.0-1.0","null","[Dot display: left=258, right=300, diff=42]","null","","-1","-1","258","300","42","","","","","","","","","","","","","","","","","","","","","","","","","","","","","","","","",""
"","confidence_first","html-keyboard-response","359","2473849","0.0-109.0-2.0","2123.0999999940395","Confidence judgement (first response)","","","-1","-1","","","","right","60.5","50","60.5","true","41","","","","","","","","","","","","","","","","","","","","","","","","","","",""
"","no_advice_display","html-button-response","360","2474714","0.0-109.0-5.0-0.0","863","noAdvice","0","","-1","-1","","","","","","","","","","","","","","","","","","","","","","","","","","","","","","","","","","","",""
"","blank_screen","html-keyboard-response","361","2475522","0.0-109.0-5.0-1.0","null","blank","null","","-1","-1","","","","","","","","","","","","","","","","","","","","","","","","","","","","","","","","","","","",""
"","confidence_second","html-keyboard-response","362","2476193","0.0-109.0-6.0","670.1000000089407","Confidence judgment (second response)","","","-1","-1","","","","right","60.5","50","60.5","true","41","","","","","","","","","","","","","","","","","","","","","","","","","","",""
"","consolidated-trial-data","consolidated-trial-data","363","2476210","0.0-110.0","null","consolidated-trial-data","null","","","","","","","","","","","","","","","2","6","36","258","300","42","right","60.5","true","2123.0999999940395","3","yes","right","right","60.5","true","true","670.1000000089407","","","","","","",""
"","fixation","html-keyboard-response","364","2477494","0.0-111.0-0.0","null","fixation","null","","-1","-1","","","","","","","","","","","","","","","","","","","","","","","","","","","","","","","","","","","",""
"","numerosity","html-keyboard-response","365","2478010","0.0-111.0-1.0","null","[Dot display: left=259, right=300, diff=41]","null","","-1","-1","259","300","41","","","","","","","","","","","","","","","","","","","","","","","","","","","","","","","","",""
"","confidence_first","html-keyboard-response","366","2479638","0.0-111.0-2.0","1625.7999999970198","Confidence judgement (first response)","","","-1","-1","","","","right","70.25","50","70.25","true","41","","","","","","","","","","","","","","","","","","","","","","","","","","",""
"","advice_choice","html-button-response","367","2481123","0.0-111.0-3.0-0.0","1484","[advice choice Y,N]","0","","-1","-1","","","","","","","","","","","","","","","","","","","","","","","","","","","","","","","","","","","",""
"","show_advice","html-keyboard-response","368","2481925","0.0-111.0-3.0-1.0-0.0","null","[advice: right]","null","","-1","-1","","","","","","","","","","","right","","","","","","","","","","","","","","","","","","","","","","","","",""
"","confidence_second","html-keyboard-response","369","2483260","0.0-111.0-6.0","1333.1000000089407","Confidence judgment (second response)","","","-1","-1","","","","right","97.75","50","97.75","true","41","","","","","","","","","","","","","","","","","","","","","","","","","","",""
"","consolidated-trial-data","consolidated-trial-data","370","2483262","0.0-112.0","null","consolidated-trial-data","null","","","","","","","","","","","","","","","2","7","37","259","300","41","right","70.25","true","1625.7999999970198","1","yes","right","right","97.75","true","true","1333.1000000089407","","","","","","",""
"","fixation","html-keyboard-response","371","2484554","0.0-113.0-0.0","null","fixation","null","","-1","-1","","","","","","","","","","","","","","","","","","","","","","","","","","","","","","","","","","","",""
"","numerosity","html-keyboard-response","372","2485060","0.0-113.0-1.0","null","[Dot display: left=300, right=259, diff=41]","null","","-1","-1","300","259","41","","","","","","","","","","","","","","","","","","","","","","","","","","","","","","","","",""
"","confidence_first","html-keyboard-response","373","2487057","0.0-113.0-2.0","1995.4000000059605","Confidence judgement (first response)","","","-1","-1","","","","left","88.75","88.75","50","true","41","","","","","","","","","","","","","","","","","","","","","","","","","","",""
"","no_advice_display","html-button-response","374","2488103","0.0-113.0-5.0-0.0","1044","noAdvice","0","","-1","-1","","","","","","","","","","","","","","","","","","","","","","","","","","","","","","","","","","","",""
"","blank_screen","html-keyboard-response","375","2488904","0.0-113.0-5.0-1.0","null","blank","null","","-1","-1","","","","","","","","","","","","","","","","","","","","","","","","","","","","","","","","","","","",""
"","confidence_second","html-keyboard-response","376","2489545","0.0-113.0-6.0","639.2999999970198","Confidence judgment (second response)","","","-1","-1","","","","left","88.75","88.75","50","true","41","","","","","","","","","","","","","","","","","","","","","","","","","","",""
"","consolidated-trial-data","consolidated-trial-data","377","2489547","0.0-114.0","null","consolidated-trial-data","null","","","","","","","","","","","","","","","2","8","38","300","259","41","left","88.75","true","1995.4000000059605","3","yes","right","left","88.75","false","true","639.2999999970198","","","","","","",""
"","fixation","html-keyboard-response","378","2490926","0.0-115.0-0.0","null","fixation","null","","-1","-1","","","","","","","","","","","","","","","","","","","","","","","","","","","","","","","","","","","",""
"","numerosity","html-keyboard-response","379","2491435","0.0-115.0-1.0","null","[Dot display: left=300, right=259, diff=41]","null","","-1","-1","300","259","41","","","","","","","","","","","","","","","","","","","","","","","","","","","","","","","","",""
"","confidence_first","html-keyboard-response","380","2493027","0.0-115.0-2.0","1590","Confidence judgement (first response)","","","-1","-1","","","","left","85","85","50","true","41","","","","","","","","","","","","","","","","","","","","","","","","","","",""
"","advice_choice","html-button-response","381","2494249","0.0-115.0-3.0-0.0","1220","[advice choice Y,N]","0","","-1","-1","","","","","","","","","","","","","","","","","","","","","","","","","","","","","","","","","","","",""
"","show_advice","html-keyboard-response","382","2495060","0.0-115.0-3.0-1.0-0.0","null","[advice: left]","null","","-1","-1","","","","","","","","","","","left","","","","","","","","","","","","","","","","","","","","","","","","",""
"","confidence_second","html-keyboard-response","383","2496741","0.0-115.0-6.0","1679.5","Confidence judgment (second response)","","","-1","-1","","","","left","93.75","93.75","50","true","41","","","","","","","","","","","","","","","","","","","","","","","","","","",""
