"success","task","trial_type","trial_index","time_elapsed","internal_node_id","rt","stimulus","response","pixels_per_unit","itrial","iblock","leftDots","rightDots","difference","selected_side","confidence_value","left_confidence","right_confidence","correct","threshold","block_num","block","trial","trialid","dotsLeft","dotsRight","dotsDiff","selectedSide_first","confidence_first","correct_1","rt_1","adviceCond","adviceChoice","adviceDir","selectedSide_second","confidence_second","adviceCorrect","correct_2","rt_2","advice_direction","attention_check_correct","target_button","top_prompt","bottom_prompt","top_response","bottom_response","question_order"
"true","fullscreen_enter","fullscreen","0","3101","0.0-0.0","","","","","","","","","","","","","","","","","","","","","","","","","","","","","","","","","","","","","","","","","",""
"","welcome","html-button-response","1","5198","0.0-1.0","2095","welcome_msg","0","","","","","","","","","","","","","","","","","","","","","","","","","","","","","","","","","","","","","","",""
"","PISdoc","html-button-response","2","10348","0.0-2.0","5147","PISdoc","0","","","","","","","","","","","","","","","","","","","","","","","","","","","","","","","","","","","","","","",""
"","demographics","survey-html-form","3","14999","0.0-3.0","4648","","{""age"":""20"",""gender"":""female"",""id"":""4771""}","","","","","","","","","","","","","","","","","","","","","","","","","","","","","","","","","","","","","","",""
"","dass10","survey-likert","4","50103","0.0-4.0","35101","","{""felt_panic"":0,""no_initiative"":3,""felt_blue"":1,""was_intolerant"":1,""nothing_forward"":1,""felt_scared"":1,""over_react"":0,""felt_worry"":1,""no_relax"":2,""no_positive"":1,""felt_annoyed"":0,""EOL_thoughts"":0}","","","","","","","","","","","","","","","","","","","","","","","","","","","","","","","","","","","","","","",""
"","pracInstructions","html-button-response","5","54584","0.0-5.0-0.0","4479","pracInstruc","0","","","","","","","","","","","","","","","","","","","","","","","","","","","","","","","","","","","","","","",""
"","pracInstructions","html-button-response","6","59402","0.0-5.0-0.1","4816","pracInstruc","0","","","","","","","","","","","","","","","","","","","","","","","","","","","","","","","","","","","","","","",""
"","pracInstructions","html-button-response","7","61634","0.0-5.0-0.2","2231","pracInstruc","0","","","","","","","","","","","","","","","","","","","","","","","","","","","","","","","","","","","","","","",""
"","pracInstructions","html-button-response","8","65168","0.0-5.0-0.3","3533","pracInstruc","0","","","","","","","","","","","","","","","","","","","","","","","","","","","","","","","","","","","","","","",""
"","pracInstructions","html-button-response","9","65985","0.0-5.0-0.4","815","pracInstruc","0","","","","","","","","","","","","","","","","","","","","","","","","","","","","","","","","","","","","","","",""
"","pracInstructions","html-button-response","10","66634","0.0-5.0-0.5","648","pracInstruc","0","","","","","","","","","","","","","","","","","","","","","","","","","","","","","","","","","","","","","","",""
"","pracInstructions","html-button-response","11","68669","0.0-5.0-0.6","2033","pracInstruc","0","","","","","","","","","","","","","","","","","","","","","","","","","","","","","","","","","","","","","","",""
"","","html-button-response","12","102703","0.0-6.0","34032","<div style= ""font-size: 24px; color: white"">
                        
                            <p>First, Please hold a credit card up to your screen.</p>
                            <p>Adjust this box until it matches the size of the credit card.</p>
                            <div id=""calibration-box"" style=""
                                width: 506px;
                                height: 319px;
                                border: 2px solid white;
                                background-color: rgba(255,255,255,0.2);
                                margin: 20px auto;
                                resize: both;
                                overflow: hidden;
                            ""></div>
                        </div>
                    ","0","127","","","","","","","","","","","","","","","","","","","","","","","","","","","","","","","","","","","","","",""
"","fixation","html-keyboard-response","13","103939","0.0-7.0-0.0","null","fixation","null","","-1","-1","","","","","","","","","","","","","","","","","","","","","","","","","","","","","","","","","","","",""
"","numerosity","html-keyboard-response","14","104445","0.0-7.0-1.0","null","[Dot display: left=250, right=300, diff=50]","null","","-1","-1","250","300","50","","","","","","","","","","","","","","","","","","","","","","","","","","","","","","","","",""
"","confidence_first","html-keyboard-response","15","113423","0.0-7.0-2.0","8973.10000000894","Confidence judgement (first response)","","","-1","-1","","","","right","67.25","50","67.25","true","19","","","","","","","","","","","","","","","","","","","","","","","","","","",""
"","fixation","html-keyboard-response","16","114802","0.0-8.0-0.0","null","fixation","null","","-1","-1","","","","","","","","","","","","","","","","","","","","","","","","","","","","","","","","","","","",""
"","numerosity","html-keyboard-response","17","115307","0.0-8.0-1.0","null","[Dot display: left=250, right=300, diff=50]","null","","-1","-1","250","300","50","","","","","","","","","","","","","","","","","","","","","","","","","","","","","","","","",""
"","confidence_first","html-keyboard-response","18","118854","0.0-8.0-2.0","3545.199999988079","Confidence judgement (first response)","","","-1","-1","","","","left","50.75","50.75","50","false","37","","","","","","","","","","","","","","","","","","","","","","","","","","",""
"","fixation","html-keyboard-response","19","120281","0.0-9.0-0.0","null","fixation","null","","-1","-1","","","","","","","","","","","","","","","","","","","","","","","","","","","","","","","","","","","",""
"","numerosity","html-keyboard-response","20","120785","0.0-9.0-1.0","null","[Dot display: left=250, right=300, diff=50]","null","","-1","-1","250","300","50","","","","","","","","","","","","","","","","","","","","","","","","","","","","","","","","",""
"","confidence_first","html-keyboard-response","21","123270","0.0-9.0-2.0","2483.5","Confidence judgement (first response)","","","-1","-1","","","","right","60.5","50","60.5","true","35","","","","","","","","","","","","","","","","","","","","","","","","","","",""
"","fixation","html-keyboard-response","22","124563","0.0-10.0-0.0","null","fixation","null","","-1","-1","","","","","","","","","","","","","","","","","","","","","","","","","","","","","","","","","","","",""
"","numerosity","html-keyboard-response","23","125070","0.0-10.0-1.0","null","[Dot display: left=265, right=300, diff=35]","null","","-1","-1","265","300","35","","","","","","","","","","","","","","","","","","","","","","","","","","","","","","","","",""
"","confidence_first","html-keyboard-response","24","126888","0.0-10.0-2.0","1816","Confidence judgement (first response)","","","-1","-1","","","","right","61","50","61","true","31","","","","","","","","","","","","","","","","","","","","","","","","","","",""
"","fixation","html-keyboard-response","25","128094","0.0-11.0-0.0","null","fixation","null","","-1","-1","","","","","","","","","","","","","","","","","","","","","","","","","","","","","","","","","","","",""
"","numerosity","html-keyboard-response","26","128600","0.0-11.0-1.0","null","[Dot display: left=300, right=269, diff=31]","null","","-1","-1","300","269","31","","","","","","","","","","","","","","","","","","","","","","","","","","","","","","","","",""
"","confidence_first","html-keyboard-response","27","130722","0.0-11.0-2.0","2120","Confidence judgement (first response)","","","-1","-1","","","","left","55.25","55.25","50","true","27","","","","","","","","","","","","","","","","","","","","","","","","","","",""
"","fixation","html-keyboard-response","28","132128","0.0-12.0-0.0","null","fixation","null","","-1","-1","","","","","","","","","","","","","","","","","","","","","","","","","","","","","","","","","","","",""
"","numerosity","html-keyboard-response","29","132634","0.0-12.0-1.0","null","[Dot display: left=300, right=273, diff=27]","null","","-1","-1","300","273","27","","","","","","","","","","","","","","","","","","","","","","","","","","","","","","","","",""
"","confidence_first","html-keyboard-response","30","134571","0.0-12.0-2.0","1934.6000000089407","Confidence judgement (first response)","","","-1","-1","","","","left","59.75","59.75","50","true","23","","","","","","","","","","","","","","","","","","","","","","","","","","",""
"","fixation","html-keyboard-response","31","135787","0.0-13.0-0.0","null","fixation","null","","-1","-1","","","","","","","","","","","","","","","","","","","","","","","","","","","","","","","","","","","",""
"","numerosity","html-keyboard-response","32","136292","0.0-13.0-1.0","null","[Dot display: left=300, right=277, diff=23]","null","","-1","-1","300","277","23","","","","","","","","","","","","","","","","","","","","","","","","","","","","","","","","",""
"","confidence_first","html-keyboard-response","33","138088","0.0-13.0-2.0","1793.9000000059605","Confidence judgement (first response)","","","-1","-1","","","","right","53.75","50","53.75","false","40","","","","","","","","","","","","","","","","","","","","","","","","","","",""
"","fixation","html-keyboard-response","34","139494","0.0-14.0-0.0","null","fixation","null","","-1","-1","","","","","","","","","","","","","","","","","","","","","","","","","","","","","","","","","","","",""
"","numerosity","html-keyboard-response","35","139999","0.0-14.0-1.0","null","[Dot display: left=300, right=260, diff=40]","null","","-1","-1","300","260","40","","","","","","","","","","","","","","","","","","","","","","","","","","","","","","","","",""
"","confidence_first","html-keyboard-response","36","141856","0.0-14.0-2.0","1854.7999999970198","Confidence judgement (first response)","","","-1","-1","","","","left","56.5","56.5","50","true","38","","","","","","","","","","","","","","","","","","","","","","","","","","",""
"","fixation","html-keyboard-response","37","143122","0.0-15.0-0.0","null","fixation","null","","-1","-1","","","","","","","","","","","","","","","","","","","","","","","","","","","","","","","","","","","",""
"","numerosity","html-keyboard-response","38","143627","0.0-15.0-1.0","null","[Dot display: left=262, right=300, diff=38]","null","","-1","-1","262","300","38","","","","","","","","","","","","","","","","","","","","","","","","","","","","","","","","",""
"","confidence_first","html-keyboard-response","39","145422","0.0-15.0-2.0","1793.5","Confidence judgement (first response)","","","-1","-1","","","","left","53.25","53.25","50","false","46","","","","","","","","","","","","","","","","","","","","","","","","","","",""
"","fixation","html-keyboard-response","40","146649","0.0-16.0-0.0","null","fixation","null","","-1","-1","","","","","","","","","","","","","","","","","","","","","","","","","","","","","","","","","","","",""
"","numerosity","html-keyboard-response","41","147157","0.0-16.0-1.0","null","[Dot display: left=300, right=254, diff=46]","null","","-1","-1","300","254","46","","","","","","","","","","","","","","","","","","","","","","","","","","","","","","","","",""
"","confidence_first","html-keyboard-response","42","148522","0.0-16.0-2.0","1362.5999999940395","Confidence judgement (first response)","","","-1","-1","","","","left","56","56","50","true","45","","","","","","","","","","","","","","","","","","","","","","","","","","",""
"","fixation","html-keyboard-response","43","149840","0.0-17.0-0.0","null","fixation","null","","-1","-1","","","","","","","","","","","","","","","","","","","","","","","","","","","","","","","","","","","",""
"","numerosity","html-keyboard-response","44","150345","0.0-17.0-1.0","null","[Dot display: left=255, right=300, diff=45]","null","","-1","-1","255","300","45","","","","","","","","","","","","","","","","","","","","","","","","","","","","","","","","",""
"","confidence_first","html-keyboard-response","45","151955","0.0-17.0-2.0","1608.5999999940395","Confidence judgement (first response)","","","-1","-1","","","","right","55.5","50","55.5","true","44","","","","","","","","","","","","","","","","","","","","","","","","","","",""
"","fixation","html-keyboard-response","46","153353","0.0-18.0-0.0","null","fixation","null","","-1","-1","","","","","","","","","","","","","","","","","","","","","","","","","","","","","","","","","","","",""
"","numerosity","html-keyboard-response","47","153857","0.0-18.0-1.0","null","[Dot display: left=300, right=256, diff=44]","null","","-1","-1","300","256","44","","","","","","","","","","","","","","","","","","","","","","","","","","","","","","","","",""
"","confidence_first","html-keyboard-response","48","155539","0.0-18.0-2.0","1680.4000000059605","Confidence judgement (first response)","","","-1","-1","","","","left","55.5","55.5","50","true","43","","","","","","","","","","","","","","","","","","","","","","","","","","",""
"","fixation","html-keyboard-response","49","156763","0.0-19.0-0.0","null","fixation","null","","-1","-1","","","","","","","","","","","","","","","","","","","","","","","","","","","","","","","","","","","",""
"","numerosity","html-keyboard-response","50","157268","0.0-19.0-1.0","null","[Dot display: left=300, right=257, diff=43]","null","","-1","-1","300","257","43","","","","","","","","","","","","","","","","","","","","","","","","","","","","","","","","",""
"","confidence_first","html-keyboard-response","51","159073","0.0-19.0-2.0","1802.6000000089407","Confidence judgement (first response)","","","-1","-1","","","","left","60","60","50","true","42","","","","","","","","","","","","","","","","","","","","","","","","","","",""
"","fixation","html-keyboard-response","52","160398","0.0-20.0-0.0","null","fixation","null","","-1","-1","","","","","","","","","","","","","","","","","","","","","","","","","","","","","","","","","","","",""
"","numerosity","html-keyboard-response","53","160905","0.0-20.0-1.0","null","[Dot display: left=300, right=258, diff=42]","null","","-1","-1","300","258","42","","","","","","","","","","","","","","","","","","","","","","","","","","","","","","","","",""
"","confidence_first","html-keyboard-response","54","162539","0.0-20.0-2.0","1632.7999999970198","Confidence judgement (first response)","","","-1","-1","","","","right","53.5","50","53.5","false","46","","","","","","","","","","","","","","","","","","","","","","","","","","",""
"","fixation","html-keyboard-response","55","163965","0.0-21.0-0.0","null","fixation","null","","-1","-1","","","","","","","","","","","","","","","","","","","","","","","","","","","","","","","","","","","",""
"","numerosity","html-keyboard-response","56","164471","0.0-21.0-1.0","null","[Dot display: left=254, right=300, diff=46]","null","","-1","-1","254","300","46","","","","","","","","","","","","","","","","","","","","","","","","","","","","","","","","",""
"","confidence_first","html-keyboard-response","57","166356","0.0-21.0-2.0","1883.3999999910593","Confidence judgement (first response)","","","-1","-1","","","","left","66.5","66.5","50","false","50","","","","","","","","","","","","","","","","","","","","","","","","","","",""
"","fixation","html-keyboard-response","58","167682","0.0-22.0-0.0","null","fixation","null","","-1","-1","","","","","","","","","","","","","","","","","","","","","","","","","","","","","","","","","","","",""
"","numerosity","html-keyboard-response","59","168186","0.0-22.0-1.0","null","[Dot display: left=300, right=250, diff=50]","null","","-1","-1","300","250","50","","","","","","","","","","","","","","","","","","","","","","","","","","","","","","","","",""
"","confidence_first","html-keyboard-response","60","170107","0.0-22.0-2.0","1919","Confidence judgement (first response)","","","-1","-1","","","","right","62.75","50","62.75","false","54","","","","","","","","","","","","","","","","","","","","","","","","","","",""
"","fixation","html-keyboard-response","61","171321","0.0-23.0-0.0","null","fixation","null","","-1","-1","","","","","","","","","","","","","","","","","","","","","","","","","","","","","","","","","","","",""
"","numerosity","html-keyboard-response","62","171824","0.0-23.0-1.0","null","[Dot display: left=246, right=300, diff=54]","null","","-1","-1","246","300","54","","","","","","","","","","","","","","","","","","","","","","","","","","","","","","","","",""
"","confidence_first","html-keyboard-response","63","173340","0.0-23.0-2.0","1513.8999999910593","Confidence judgement (first response)","","","-1","-1","","","","right","75","50","75","true","53","","","","","","","","","","","","","","","","","","","","","","","","","","",""
"","fixation","html-keyboard-response","64","174811","0.0-24.0-0.0","null","fixation","null","","-1","-1","","","","","","","","","","","","","","","","","","","","","","","","","","","","","","","","","","","",""
"","numerosity","html-keyboard-response","65","175315","0.0-24.0-1.0","null","[Dot display: left=300, right=247, diff=53]","null","","-1","-1","300","247","53","","","","","","","","","","","","","","","","","","","","","","","","","","","","","","","","",""
"","confidence_first","html-keyboard-response","66","176975","0.0-24.0-2.0","1657.3999999910593","Confidence judgement (first response)","","","-1","-1","","","","right","57.5","50","57.5","false","57","","","","","","","","","","","","","","","","","","","","","","","","","","",""
"","fixation","html-keyboard-response","67","178216","0.0-25.0-0.0","null","fixation","null","","-1","-1","","","","","","","","","","","","","","","","","","","","","","","","","","","","","","","","","","","",""
"","numerosity","html-keyboard-response","68","178721","0.0-25.0-1.0","null","[Dot display: left=243, right=300, diff=57]","null","","-1","-1","243","300","57","","","","","","","","","","","","","","","","","","","","","","","","","","","","","","","","",""
"","confidence_first","html-keyboard-response","69","180307","0.0-25.0-2.0","1584.6000000089407","Confidence judgement (first response)","","","-1","-1","","","","right","56.75","50","56.75","true","56","","","","","","","","","","","","","","","","","","","","","","","","","","",""
"","fixation","html-keyboard-response","70","181735","0.0-26.0-0.0","null","fixation","null","","-1","-1","","","","","","","","","","","","","","","","","","","","","","","","","","","","","","","","","","","",""
"","numerosity","html-keyboard-response","71","182241","0.0-26.0-1.0","null","[Dot display: left=244, right=300, diff=56]","null","","-1","-1","244","300","56","","","","","","","","","","","","","","","","","","","","","","","","","","","","","","","","",""
"","confidence_first","html-keyboard-response","72","183825","0.0-26.0-2.0","1581","Confidence judgement (first response)","","","-1","-1","","","","left","54.25","54.25","50","false","59","","","","","","","","","","","","","","","","","","","","","","","","","","",""
"","fixation","html-keyboard-response","73","185323","0.0-27.0-0.0","null","fixation","null","","-1","-1","","","","","","","","","","","","","","","","","","","","","","","","","","","","","","","","","","","",""
"","numerosity","html-keyboard-response","74","185829","0.0-27.0-1.0","null","[Dot display: left=300, right=241, diff=59]","null","","-1","-1","300","241","59","","","","","","","","","","","","","","","","","","","","","","","","","","","","","","","","",""
"","confidence_first","html-keyboard-response","75","187025","0.0-27.0-2.0","1194.2999999970198","Confidence judgement (first response)","","","-1","-1","","","","right","53.5","50","53.5","false","63","","","","","","","","","","","","","","","","","","","","","","","","","","",""
"","fixation","html-keyboard-response","76","188357","0.0-28.0-0.0","null","fixation","null","","-1","-1","","","","","","","","","","","","","","","","","","","","","","","","","","","","","","","","","","","",""
"","numerosity","html-keyboard-response","77","188864","0.0-28.0-1.0","null","[Dot display: left=237, right=300, diff=63]","null","","-1","-1","237","300","63","","","","","","","","","","","","","","","","","","","","","","","","","","","","","","","","",""
"","confidence_first","html-keyboard-response","78","190057","0.0-28.0-2.0","1191.5","Confidence judgement (first response)","","","-1","-1","","","","right","56","50","56","true","62","","","","","","","","","","","","","","","","","","","","","","","","","","",""
"","fixation","html-keyboard-response","79","191455","0.0-29.0-0.0","null","fixation","null","","-1","-1","","","","","","","","","","","","","","","","","","","","","","","","","","","","","","","","","","","",""
"","numerosity","html-keyboard-response","80","191961","0.0-29.0-1.0","null","[Dot display: left=300, right=238, diff=62]","null","","-1","-1","300","238","62","","","","","","","","","","","","","","","","","","","","","","","","","","","","","","","","",""
"","confidence_first","html-keyboard-response","81","193441","0.0-29.0-2.0","1478.699999988079","Confidence judgement (first response)","","","-1","-1","","","","left","54.75","54.75","50","true","61","","","","","","","","","","","","","","","","","","","","","","","","","","",""
"","fixation","html-keyboard-response","82","194930","0.0-30.0-0.0","null","fixation","null","","-1","-1","","","","","","","","","","","","","","","","","","","","","","","","","","","","","","","","","","","",""
"","numerosity","html-keyboard-response","83","195435","0.0-30.0-1.0","null","[Dot display: left=300, right=239, diff=61]","null","","-1","-1","300","239","61","","","","","","","","","","","","","","","","","","","","","","","","","","","","","","","","",""
"","confidence_first","html-keyboard-response","84","197358","0.0-30.0-2.0","1921.6000000089407","Confidence judgement (first response)","","","-1","-1","","","","left","57","57","50","true","61","","","","","","","","","","","","","","","","","","","","","","","","","","",""
"","fixation","html-keyboard-response","85","198675","0.0-31.0-0.0","null","fixation","null","","-1","-1","","","","","","","","","","","","","","","","","","","","","","","","","","","","","","","","","","","",""
"","numerosity","html-keyboard-response","86","199181","0.0-31.0-1.0","null","[Dot display: left=239, right=300, diff=61]","null","","-1","-1","239","300","61","","","","","","","","","","","","","","","","","","","","","","","","","","","","","","","","",""
"","confidence_first","html-keyboard-response","87","200691","0.0-31.0-2.0","1508","Confidence judgement (first response)","","","-1","-1","","","","right","58.75","50","58.75","true","60","","","","","","","","","","","","","","","","","","","","","","","","","","",""
"","expInstructions","html-button-response","88","204241","0.0-32.0-0.0","3549","expInstruc","0","","","","","","","","","","","","","","","","","","","","","","","","","","","","","","","","","","","","","","",""
"","expInstructions","html-button-response","89","209742","0.0-32.0-0.1","5499","expInstruc","0","","","","","","","","","","","","","","","","","","","","","","","","","","","","","","","","","","","","","","",""
"","expInstructions","html-button-response","90","213926","0.0-32.0-0.2","4183","expInstruc","0","","","","","","","","","","","","","","","","","","","","","","","","","","","","","","","","","","","","","","",""
"","expInstructions","html-button-response","91","215576","0.0-32.0-0.3","1648","expInstruc","0","","","","","","","","","","","","","","","","","","","","","","","","","","","","","","","","","","","","","","",""
"","expInstructions","html-button-response","92","217791","0.0-32.0-0.4","2215","expInstruc","0","","","","","","","","","","","","","","","","","","","","","","","","","","","","","","","","","","","","","","",""
"","expInstructions","html-button-response","93","221092","0.0-32.0-0.5","3299","expInstruc","0","","","","","","","","","","","","","","","","","","","","","","","","","","","","","","","","","","","","","","",""
"","expInstructions","html-button-response","94","223259","0.0-32.0-0.6","2165","expInstruc","0","","","","","","","","","","","","","","","","","","","","","","","","","","","","","","","","","","","","","","",""
"","expInstructions","html-button-response","95","229010","0.0-32.0-0.7","5750","expInstruc","0","","","","","","","","","","","","","","","","","","","","","","","","","","","","","","","","","","","","","","",""
"","expInstructions","html-button-response","96","234293","0.0-32.0-0.8","5281","expInstruc","0","","","","","","","","","","","","","","","","","","","","","","","","","","","","","","","","","","","","","","",""
"","expInstructions","html-button-response","97","237411","0.0-32.0-0.9","3116","expInstruc","0","","","","","","","","","","","","","","","","","","","","","","","","","","","","","","","","","","","","","","",""
"","expInstructions","html-button-response","98","238492","0.0-32.0-0.10","1080","expInstruc","0","","","","","","","","","","","","","","","","","","","","","","","","","","","","","","","","","","","","","","",""
"","expInstructions","html-button-response","99","241110","0.0-32.0-0.11","2616","expInstruc","0","","","","","","","","","","","","","","","","","","","","","","","","","","","","","","","","","","","","","","",""
"","expInstructions","html-button-response","100","241993","0.0-32.0-0.12","882","expInstruc","0","","","","","","","","","","","","","","","","","","","","","","","","","","","","","","","","","","","","","","",""
"","block_message","html-button-response","101","246243","0.0-33.0","4248","block message","0","","","","","","","","","","","","","1","","","","","","","","","","","","","","","","","","","","","","","","","",""
"","fixation","html-keyboard-response","102","247589","0.0-34.0-0.0","null","fixation","null","","-1","-1","","","","","","","","","","","","","","","","","","","","","","","","","","","","","","","","","","","",""
"","numerosity","html-keyboard-response","103","248095","0.0-34.0-1.0","null","[Dot display: left=300, right=240, diff=60]","null","","-1","-1","300","240","60","","","","","","","","","","","","","","","","","","","","","","","","","","","","","","","","",""
"","confidence_first","html-keyboard-response","104","250994","0.0-34.0-2.0","2896.1000000089407","Confidence judgement (first response)","","","-1","-1","","","","left","91.5","91.5","50","true","59","","","","","","","","","","","","","","","","","","","","","","","","","","",""
"","no_advice_display","html-button-response","105","252844","0.0-34.0-5.0-0.0","1848","noAdvice","0","","-1","-1","","","","","","","","","","","","","","","","","","","","","","","","","","","","","","","","","","","",""
"","blank_screen","html-keyboard-response","106","253647","0.0-34.0-5.0-1.0","null","blank","null","","-1","-1","","","","","","","","","","","","","","","","","","","","","","","","","","","","","","","","","","","",""
"","confidence_second","html-keyboard-response","107","256194","0.0-34.0-6.0","2544.7000000029802","Confidence judgment (second response)","","","-1","-1","","","","left","91.5","91.5","50","true","59","","","","","","","","","","","","","","","","","","","","","","","","","","",""
"","consolidated-trial-data","consolidated-trial-data","108","256196","0.0-35.0","null","consolidated-trial-data","null","","","","","","","","","","","","","","0","0","0","300","240","60","left","91.5","true","2896.1000000089407","3","nan","none","left","91.5","nan","true","2544.7000000029802","","","","","","","",""
"","fixation","html-keyboard-response","109","257686","0.0-36.0-0.0","null","fixation","null","","-1","-1","","","","","","","","","","","","","","","","","","","","","","","","","","","","","","","","","","","",""
"","numerosity","html-keyboard-response","110","258192","0.0-36.0-1.0","null","[Dot display: left=241, right=300, diff=59]","null","","-1","-1","241","300","59","","","","","","","","","","","","","","","","","","","","","","","","","","","","","","","","",""
"","confidence_first","html-keyboard-response","111","261044","0.0-36.0-2.0","2850.3999999910593","Confidence judgement (first response)","","","-1","-1","","","","right","60","50","60","true","59","","","","","","","","","","","","","","","","","","","","","","","","","","",""
"","no_advice_display","html-button-response","112","264411","0.0-36.0-5.0-0.0","3366","noAdvice","0","","-1","-1","","","","","","","","","","","","","","","","","","","","","","","","","","","","","","","","","","","",""
"","blank_screen","html-keyboard-response","113","265214","0.0-36.0-5.0-1.0","null","blank","null","","-1","-1","","","","","","","","","","","","","","","","","","","","","","","","","","","","","","","","","","","",""
"","confidence_second","html-keyboard-response","114","266678","0.0-36.0-6.0","1462","Confidence judgment (second response)","","","-1","-1","","","","right","60","50","60","true","59","","","","","","","","","","","","","","","","","","","","","","","","","","",""
"","consolidated-trial-data","consolidated-trial-data","115","266681","0.0-37.0","null","consolidated-trial-data","null","","","","","","","","","","","","","","0","1","1","241","300","59","right","60","true","2850.3999999910593","3","nan","none","right","60","nan","true","1462","","","","","","","",""
"","fixation","html-keyboard-response","116","268049","0.0-38.0-0.0","null","fixation","null","","-1","-1","","","","","","","","","","","","","","","","","","","","","","","","","","","","","","","","","","","",""
"","numerosity","html-keyboard-response","117","268553","0.0-38.0-1.0","null","[Dot display: left=241, right=300, diff=59]","null","","-1","-1","241","300","59","","","","","","","","","","","","","","","","","","","","","","","","","","","","","","","","",""
"","confidence_first","html-keyboard-response","118","270911","0.0-38.0-2.0","2356.3999999910593","Confidence judgement (first response)","","","-1","-1","","","","right","54","50","54","true","58","","","","","","","","","","","","","","","","","","","","","","","","","","",""
"","advice_choice","html-button-response","119","272577","0.0-38.0-3.0-0.0","1665","[advice choice Y,N]","0","","-1","-1","","","","","","","","","","","","","","","","","","","","","","","","","","","","","","","","","","","",""
"","show_advice","html-keyboard-response","120","273380","0.0-38.0-3.0-1.0-0.0","null","[advice: left]","null","","-1","-1","","","","","","","","","","","","","","","","","","","","","","","","","","","","","left","","","","","","",""
"","confidence_second","html-keyboard-response","121","277728","0.0-38.0-6.0","4345.399999991059","Confidence judgment (second response)","","","-1","-1","","","","left","53.25","53.25","50","false","58","","","","","","","","","","","","","","","","","","","","","","","","","","",""
"","consolidated-trial-data","consolidated-trial-data","122","277729","0.0-39.0","null","consolidated-trial-data","null","","","","","","","","","","","","","","0","2","2","241","300","59","right","54","true","2356.3999999910593","1","yes","left","left","53.25","false","false","4345.399999991059","","","","","","","",""
"","fixation","html-keyboard-response","123","279185","0.0-40.0-0.0","null","fixation","null","","-1","-1","","","","","","","","","","","","","","","","","","","","","","","","","","","","","","","","","","","",""
"","numerosity","html-keyboard-response","124","279689","0.0-40.0-1.0","null","[Dot display: left=300, right=242, diff=58]","null","","-1","-1","300","242","58","","","","","","","","","","","","","","","","","","","","","","","","","","","","","","","","",""
"","confidence_first","html-keyboard-response","125","281896","0.0-40.0-2.0","2204.5","Confidence judgement (first response)","","","-1","-1","","","","left","70.5","70.5","50","true","57","","","","","","","","","","","","","","","","","","","","","","","","","","",""
"","advice_choice","html-button-response","126","283079","0.0-40.0-3.0-0.0","1181","[advice choice Y,N]","1","","-1","-1","","","","","","","","","","","","","","","","","","","","","","","","","","","","","","","","","","","",""
"","blank_screen","html-keyboard-response","127","283882","0.0-40.0-3.0-2.0-0.0","null","blank","null","","-1","-1","","","","","","","","","","","","","","","","","","","","","","","","","","","","","","","","","","","",""
"","confidence_second","html-keyboard-response","128","284962","0.0-40.0-6.0","1077.9000000059605","Confidence judgment (second response)","","","-1","-1","","","","left","70.5","70.5","50","true","57","","","","","","","","","","","","","","","","","","","","","","","","","","",""
"","consolidated-trial-data","consolidated-trial-data","129","284963","0.0-41.0","null","consolidated-trial-data","null","","","","","","","","","","","","","","0","3","3","300","242","58","left","70.5","true","2204.5","1","no","left","left","70.5","true","true","1077.9000000059605","","","","","","","",""
"","fixation","html-keyboard-response","130","286270","0.0-42.0-0.0","null","fixation","null","","-1","-1","","","","","","","","","","","","","","","","","","","","","","","","","","","","","","","","","","","",""
"","numerosity","html-keyboard-response","131","286774","0.0-42.0-1.0","null","[Dot display: left=243, right=300, diff=57]","null","","-1","-1","243","300","57","","","","","","","","","","","","","","","","","","","","","","","","","","","","","","","","",""
"","confidence_first","html-keyboard-response","132","289096","0.0-42.0-2.0","2319.7999999970198","Confidence judgement (first response)","","","-1","-1","","","","right","55","50","55","true","57","","","","","","","","","","","","","","","","","","","","","","","","","","",""
"","forced_advice_display","html-button-response","133","290263","0.0-42.0-4.0-0.0","1165","forcedAdvice","0","","-1","-1","","","","","","","","","","","","","","","","","","","","","","","","","","","","","","","","","","","",""
"","show_advice","html-keyboard-response","134","291066","0.0-42.0-4.0-1.0","null","[advice: right]","null","","-1","-1","","","","","","","","","","","","","","","","","","","","","","","","","","","","","right","","","","","","",""
"","confidence_second","html-keyboard-response","135","292262","0.0-42.0-6.0","1195.4000000059605","Confidence judgment (second response)","","","-1","-1","","","","right","55","50","55","true","57","","","","","","","","","","","","","","","","","","","","","","","","","","",""
"","consolidated-trial-data","consolidated-trial-data","136","292264","0.0-43.0","null","consolidated-trial-data","null","","","","","","","","","","","","","","0","4","4","243","300","57","right","55","true","2319.7999999970198","2","no","right","right","55","true","true","1195.4000000059605","","","","","","","",""
"","fixation","html-keyboard-response","137","293508","0.0-44.0-0.0","null","fixation","null","","-1","-1","","","","","","","","","","","","","","","","","","","","","","","","","","","","","","","","","","","",""
"","numerosity","html-keyboard-response","138","294013","0.0-44.0-1.0","null","[Dot display: left=243, right=300, diff=57]","null","","-1","-1","243","300","57","","","","","","","","","","","","","","","","","","","","","","","","","","","","","","","","",""
"","confidence_first","html-keyboard-response","139","295714","0.0-44.0-2.0","1697.6000000089407","Confidence judgement (first response)","","","-1","-1","","","","right","55","50","55","true","56","","","","","","","","","","","","","","","","","","","","","","","","","","",""
"","advice_choice","html-button-response","140","296813","0.0-44.0-3.0-0.0","1098","[advice choice Y,N]","0","","-1","-1","","","","","","","","","","","","","","","","","","","","","","","","","","","","","","","","","","","",""
"","show_advice","html-keyboard-response","141","297616","0.0-44.0-3.0-1.0-0.0","null","[advice: right]","null","","-1","-1","","","","","","","","","","","","","","","","","","","","","","","","","","","","","right","","","","","","",""
"","confidence_second","html-keyboard-response","142","298296","0.0-44.0-6.0","678.7000000029802","Confidence judgment (second response)","","","-1","-1","","","","right","55","50","55","true","56","","","","","","","","","","","","","","","","","","","","","","","","","","",""
"","consolidated-trial-data","consolidated-trial-data","143","298298","0.0-45.0","null","consolidated-trial-data","null","","","","","","","","","","","","","","0","5","5","243","300","57","right","55","true","1697.6000000089407","1","yes","right","right","55","true","true","678.7000000029802","","","","","","","",""
"","fixation","html-keyboard-response","144","299583","0.0-46.0-0.0","null","fixation","null","","-1","-1","","","","","","","","","","","","","","","","","","","","","","","","","","","","","","","","","","","",""
"","numerosity","html-keyboard-response","145","300088","0.0-46.0-1.0","null","[Dot display: left=300, right=244, diff=56]","null","","-1","-1","300","244","56","","","","","","","","","","","","","","","","","","","","","","","","","","","","","","","","",""
"","confidence_first","html-keyboard-response","146","301879","0.0-46.0-2.0","1789.8999999910593","Confidence judgement (first response)","","","-1","-1","","","","left","75.25","75.25","50","true","56","","","","","","","","","","","","","","","","","","","","","","","","","","",""
"","forced_advice_display","html-button-response","147","302780","0.0-46.0-4.0-0.0","899","forcedAdvice","0","","-1","-1","","","","","","","","","","","","","","","","","","","","","","","","","","","","","","","","","","","",""
"","show_advice","html-keyboard-response","148","303583","0.0-46.0-4.0-1.0","null","[advice: left]","null","","-1","-1","","","","","","","","","","","","","","","","","","","","","","","","","","","","","left","","","","","","",""
"","confidence_second","html-keyboard-response","149","304213","0.0-46.0-6.0","628.5999999940395","Confidence judgment (second response)","","","-1","-1","","","","left","75.25","75.25","50","true","56","","","","","","","","","","","","","","","","","","","","","","","","","","",""
"","consolidated-trial-data","consolidated-trial-data","150","304214","0.0-47.0","null","consolidated-trial-data","null","","","","","","","","","","","","","","0","6","6","300","244","56","left","75.25","true","1789.8999999910593","2","yes","left","left","75.25","true","true","628.5999999940395","","","","","","","",""
"","fixation","html-keyboard-response","151","305599","0.0-48.0-0.0","null","fixation","null","","-1","-1","","","","","","","","","","","","","","","","","","","","","","","","","","","","","","","","","","","",""
"","numerosity","html-keyboard-response","152","306105","0.0-48.0-1.0","null","[Dot display: left=244, right=300, diff=56]","null","","-1","-1","244","300","56","","","","","","","","","","","","","","","","","","","","","","","","","","","","","","","","",""
"","confidence_first","html-keyboard-response","153","307713","0.0-48.0-2.0","1606.2999999970198","Confidence judgement (first response)","","","-1","-1","","","","right","51.5","50","51.5","true","55","","","","","","","","","","","","","","","","","","","","","","","","","","",""
"","no_advice_display","html-button-response","154","308647","0.0-48.0-5.0-0.0","932","noAdvice","0","","-1","-1","","","","","","","","","","","","","","","","","","","","","","","","","","","","","","","","","","","",""
"","blank_screen","html-keyboard-response","155","309449","0.0-48.0-5.0-1.0","null","blank","null","","-1","-1","","","","","","","","","","","","","","","","","","","","","","","","","","","","","","","","","","","",""
"","confidence_second","html-keyboard-response","156","310713","0.0-48.0-6.0","1261.7000000029802","Confidence judgment (second response)","","","-1","-1","","","","right","51.5","50","51.5","true","55","","","","","","","","","","","","","","","","","","","","","","","","","","",""
"","consolidated-trial-data","consolidated-trial-data","157","310714","0.0-49.0","null","consolidated-trial-data","null","","","","","","","","","","","","","","0","7","7","244","300","56","right","51.5","true","1606.2999999970198","3","yes","left","right","51.5","false","true","1261.7000000029802","","","","","","","",""
"","fixation","html-keyboard-response","158","312128","0.0-50.0-0.0","null","fixation","null","","-1","-1","","","","","","","","","","","","","","","","","","","","","","","","","","","","","","","","","","","",""
"","numerosity","html-keyboard-response","159","312633","0.0-50.0-1.0","null","[Dot display: left=300, right=245, diff=55]","null","","-1","-1","300","245","55","","","","","","","","","","","","","","","","","","","","","","","","","","","","","","","","",""
"","confidence_first","html-keyboard-response","160","314531","0.0-50.0-2.0","1895.9000000059605","Confidence judgement (first response)","","","-1","-1","","","","left","64.5","64.5","50","true","55","","","","","","","","","","","","","","","","","","","","","","","","","","",""
"","forced_advice_display","html-button-response","161","315331","0.0-50.0-4.0-0.0","799","forcedAdvice","0","","-1","-1","","","","","","","","","","","","","","","","","","","","","","","","","","","","","","","","","","","",""
"","show_advice","html-keyboard-response","162","316134","0.0-50.0-4.0-1.0","null","[advice: left]","null","","-1","-1","","","","","","","","","","","","","","","","","","","","","","","","","","","","","left","","","","","","",""
"","confidence_second","html-keyboard-response","163","316797","0.0-50.0-6.0","661.7000000029802","Confidence judgment (second response)","","","-1","-1","","","","left","64.5","64.5","50","true","55","","","","","","","","","","","","","","","","","","","","","","","","","","",""
"","consolidated-trial-data","consolidated-trial-data","164","316799","0.0-51.0","null","consolidated-trial-data","null","","","","","","","","","","","","","","0","8","8","300","245","55","left","64.5","true","1895.9000000059605","2","yes","left","left","64.5","true","true","661.7000000029802","","","","","","","",""
"","fixation","html-keyboard-response","165","318040","0.0-52.0-0.0","null","fixation","null","","-1","-1","","","","","","","","","","","","","","","","","","","","","","","","","","","","","","","","","","","",""
"","numerosity","html-keyboard-response","166","318545","0.0-52.0-1.0","null","[Dot display: left=300, right=245, diff=55]","null","","-1","-1","300","245","55","","","","","","","","","","","","","","","","","","","","","","","","","","","","","","","","",""
"","confidence_first","html-keyboard-response","167","320048","0.0-52.0-2.0","1500.699999988079","Confidence judgement (first response)","","","-1","-1","","","","left","65.5","65.5","50","true","54","","","","","","","","","","","","","","","","","","","","","","","","","","",""
"","no_advice_display","html-button-response","168","321181","0.0-52.0-5.0-0.0","1131","noAdvice","0","","-1","-1","","","","","","","","","","","","","","","","","","","","","","","","","","","","","","","","","","","",""
"","blank_screen","html-keyboard-response","169","321983","0.0-52.0-5.0-1.0","null","blank","null","","-1","-1","","","","","","","","","","","","","","","","","","","","","","","","","","","","","","","","","","","",""
"","confidence_second","html-keyboard-response","170","323197","0.0-52.0-6.0","1212.5999999940395","Confidence judgment (second response)","","","-1","-1","","","","left","65.5","65.5","50","true","54","","","","","","","","","","","","","","","","","","","","","","","","","","",""
"","consolidated-trial-data","consolidated-trial-data","171","323199","0.0-53.0","null","consolidated-trial-data","null","","","","","","","","","","","","","","0","9","9","300","245","55","left","65.5","true","1500.699999988079","3","yes","left","left","65.5","true","true","1212.5999999940395","","","","","","","",""
"","attncheck","html-button-response","172","326831","0.0-54.0","3630","attncheck","2","","","","","","","","","","","","","","","","","","","","","","","","","","","","","","","","","true","Next","","","","",""
"","fixation","html-keyboard-response","173","328077","0.0-55.0-0.0","null","fixation","null","","-1","-1","","","","","","","","","","","","","","","","","","","","","","","","","","","","","","","","","","","",""
"","numerosity","html-keyboard-response","174","328582","0.0-55.0-1.0","null","[Dot display: left=246, right=300, diff=54]","null","","-1","-1","246","300","54","","","","","","","","","","","","","","","","","","","","","","","","","","","","","","","","",""
"","confidence_first","html-keyboard-response","175","330448","0.0-55.0-2.0","1864","Confidence judgement (first response)","","","-1","-1","","","","right","52","50","52","true","54","","","","","","","","","","","","","","","","","","","","","","","","","","",""
"","forced_advice_display","html-button-response","176","331365","0.0-55.0-4.0-0.0","915","forcedAdvice","0","","-1","-1","","","","","","","","","","","","","","","","","","","","","","","","","","","","","","","","","","","",""
"","show_advice","html-keyboard-response","177","332167","0.0-55.0-4.0-1.0","null","[advice: right]","null","","-1","-1","","","","","","","","","","","","","","","","","","","","","","","","","","","","","right","","","","","","",""
"","confidence_second","html-keyboard-response","178","334183","0.0-55.0-6.0","2013.3999999910593","Confidence judgment (second response)","","","-1","-1","","","","right","63.5","50","63.5","true","54","","","","","","","","","","","","","","","","","","","","","","","","","","",""
"","consolidated-trial-data","consolidated-trial-data","179","334186","0.0-56.0","null","consolidated-trial-data","null","","","","","","","","","","","","","","0","10","10","246","300","54","right","52","true","1864","2","yes","right","right","63.5","true","true","2013.3999999910593","","","","","","","",""
"","fixation","html-keyboard-response","180","335678","0.0-57.0-0.0","null","fixation","null","","-1","-1","","","","","","","","","","","","","","","","","","","","","","","","","","","","","","","","","","","",""
"","numerosity","html-keyboard-response","181","336184","0.0-57.0-1.0","null","[Dot display: left=246, right=300, diff=54]","null","","-1","-1","246","300","54","","","","","","","","","","","","","","","","","","","","","","","","","","","","","","","","",""
"","confidence_first","html-keyboard-response","182","337565","0.0-57.0-2.0","1380.1000000089407","Confidence judgement (first response)","","","-1","-1","","","","right","74.5","50","74.5","true","53","","","","","","","","","","","","","","","","","","","","","","","","","","",""
"","advice_choice","html-button-response","183","338664","0.0-57.0-3.0-0.0","1097","[advice choice Y,N]","0","","-1","-1","","","","","","","","","","","","","","","","","","","","","","","","","","","","","","","","","","","",""
"","show_advice","html-keyboard-response","184","339467","0.0-57.0-3.0-1.0-0.0","null","[advice: right]","null","","-1","-1","","","","","","","","","","","","","","","","","","","","","","","","","","","","","right","","","","","","",""
"","confidence_second","html-keyboard-response","185","340131","0.0-57.0-6.0","662.7000000029802","Confidence judgment (second response)","","","-1","-1","","","","right","74.5","50","74.5","true","53","","","","","","","","","","","","","","","","","","","","","","","","","","",""
"","consolidated-trial-data","consolidated-trial-data","186","340132","0.0-58.0","null","consolidated-trial-data","null","","","","","","","","","","","","","","0","11","11","246","300","54","right","74.5","true","1380.1000000089407","1","yes","right","right","74.5","true","true","662.7000000029802","","","","","","","",""
"","fixation","html-keyboard-response","187","341401","0.0-59.0-0.0","null","fixation","null","","-1","-1","","","","","","","","","","","","","","","","","","","","","","","","","","","","","","","","","","","",""
"","numerosity","html-keyboard-response","188","341907","0.0-59.0-1.0","null","[Dot display: left=247, right=300, diff=53]","null","","-1","-1","247","300","53","","","","","","","","","","","","","","","","","","","","","","","","","","","","","","","","",""
"","confidence_first","html-keyboard-response","189","344067","0.0-59.0-2.0","2157.7999999970198","Confidence judgement (first response)","","","-1","-1","","","","right","66","50","66","true","53","","","","","","","","","","","","","","","","","","","","","","","","","","",""
"","forced_advice_display","html-button-response","190","345199","0.0-59.0-4.0-0.0","1131","forcedAdvice","0","","-1","-1","","","","","","","","","","","","","","","","","","","","","","","","","","","","","","","","","","","",""
"","show_advice","html-keyboard-response","191","346002","0.0-59.0-4.0-1.0","null","[advice: left]","null","","-1","-1","","","","","","","","","","","","","","","","","","","","","","","","","","","","","left","","","","","","",""
"","confidence_second","html-keyboard-response","192","346698","0.0-59.0-6.0","695","Confidence judgment (second response)","","","-1","-1","","","","right","66","50","66","true","53","","","","","","","","","","","","","","","","","","","","","","","","","","",""
"","consolidated-trial-data","consolidated-trial-data","193","346699","0.0-60.0","null","consolidated-trial-data","null","","","","","","","","","","","","","","0","12","12","247","300","53","right","66","true","2157.7999999970198","2","yes","left","right","66","false","true","695","","","","","","","",""
"","fixation","html-keyboard-response","194","347921","0.0-61.0-0.0","null","fixation","null","","-1","-1","","","","","","","","","","","","","","","","","","","","","","","","","","","","","","","","","","","",""
"","numerosity","html-keyboard-response","195","348427","0.0-61.0-1.0","null","[Dot display: left=247, right=300, diff=53]","null","","-1","-1","247","300","53","","","","","","","","","","","","","","","","","","","","","","","","","","","","","","","","",""
"","confidence_first","html-keyboard-response","196","350998","0.0-61.0-2.0","2570.2999999970198","Confidence judgement (first response)","","","-1","-1","","","","right","52.5","50","52.5","true","53","","","","","","","","","","","","","","","","","","","","","","","","","","",""
"","advice_choice","html-button-response","197","351849","0.0-61.0-3.0-0.0","850","[advice choice Y,N]","1","","-1","-1","","","","","","","","","","","","","","","","","","","","","","","","","","","","","","","","","","","",""
"","blank_screen","html-keyboard-response","198","352651","0.0-61.0-3.0-2.0-0.0","null","blank","null","","-1","-1","","","","","","","","","","","","","","","","","","","","","","","","","","","","","","","","","","","",""
"","confidence_second","html-keyboard-response","199","353699","0.0-61.0-6.0","1046","Confidence judgment (second response)","","","-1","-1","","","","right","52.5","50","52.5","true","53","","","","","","","","","","","","","","","","","","","","","","","","","","",""
"","consolidated-trial-data","consolidated-trial-data","200","353701","0.0-62.0","null","consolidated-trial-data","null","","","","","","","","","","","","","","0","13","13","247","300","53","right","52.5","true","2570.2999999970198","1","no","left","right","52.5","false","true","1046","","","","","","","",""
"","fixation","html-keyboard-response","201","355069","0.0-63.0-0.0","null","fixation","null","","-1","-1","","","","","","","","","","","","","","","","","","","","","","","","","","","","","","","","","","","",""
"","numerosity","html-keyboard-response","202","355574","0.0-63.0-1.0","null","[Dot display: left=300, right=247, diff=53]","null","","-1","-1","300","247","53","","","","","","","","","","","","","","","","","","","","","","","","","","","","","","","","",""
"","confidence_first","html-keyboard-response","203","357049","0.0-63.0-2.0","1473","Confidence judgement (first response)","","","-1","-1","","","","left","60","60","50","true","52","","","","","","","","","","","","","","","","","","","","","","","","","","",""
"","no_advice_display","html-button-response","204","357833","0.0-63.0-5.0-0.0","782","noAdvice","0","","-1","-1","","","","","","","","","","","","","","","","","","","","","","","","","","","","","","","","","","","",""
"","blank_screen","html-keyboard-response","205","358636","0.0-63.0-5.0-1.0","null","blank","null","","-1","-1","","","","","","","","","","","","","","","","","","","","","","","","","","","","","","","","","","","",""
"","confidence_second","html-keyboard-response","206","359966","0.0-63.0-6.0","1328.5999999940395","Confidence judgment (second response)","","","-1","-1","","","","left","60","60","50","true","52","","","","","","","","","","","","","","","","","","","","","","","","","","",""
"","consolidated-trial-data","consolidated-trial-data","207","359967","0.0-64.0","null","consolidated-trial-data","null","","","","","","","","","","","","","","0","14","14","300","247","53","left","60","true","1473","3","no","left","left","60","true","true","1328.5999999940395","","","","","","","",""
"","block_message","html-button-response","208","361917","0.0-65.0","1947","block message","0","","","","","","","","","","","","","2","","","","","","","","","","","","","","","","","","","","","","","","","",""
"","fixation","html-keyboard-response","209","363397","0.0-66.0-0.0","null","fixation","null","","-1","-1","","","","","","","","","","","","","","","","","","","","","","","","","","","","","","","","","","","",""
"","numerosity","html-keyboard-response","210","363901","0.0-66.0-1.0","null","[Dot display: left=300, right=248, diff=52]","null","","-1","-1","300","248","52","","","","","","","","","","","","","","","","","","","","","","","","","","","","","","","","",""
"","confidence_first","html-keyboard-response","211","365917","0.0-66.0-2.0","2013.8999999910593","Confidence judgement (first response)","","","-1","-1","","","","left","59.75","59.75","50","true","52","","","","","","","","","","","","","","","","","","","","","","","","","","",""
"","no_advice_display","html-button-response","212","366816","0.0-66.0-5.0-0.0","897","noAdvice","0","","-1","-1","","","","","","","","","","","","","","","","","","","","","","","","","","","","","","","","","","","",""
"","blank_screen","html-keyboard-response","213","367619","0.0-66.0-5.0-1.0","null","blank","null","","-1","-1","","","","","","","","","","","","","","","","","","","","","","","","","","","","","","","","","","","",""
"","confidence_second","html-keyboard-response","214","368349","0.0-66.0-6.0","728.5999999940395","Confidence judgment (second response)","","","-1","-1","","","","left","59.75","59.75","50","true","52","","","","","","","","","","","","","","","","","","","","","","","","","","",""
"","consolidated-trial-data","consolidated-trial-data","215","368350","0.0-67.0","null","consolidated-trial-data","null","","","","","","","","","","","","","","1","0","15","300","248","52","left","59.75","true","2013.8999999910593","3","no","left","left","59.75","true","true","728.5999999940395","","","","","","","",""
"","fixation","html-keyboard-response","216","369566","0.0-68.0-0.0","null","fixation","null","","-1","-1","","","","","","","","","","","","","","","","","","","","","","","","","","","","","","","","","","","",""
"","numerosity","html-keyboard-response","217","370071","0.0-68.0-1.0","null","[Dot display: left=248, right=300, diff=52]","null","","-1","-1","248","300","52","","","","","","","","","","","","","","","","","","","","","","","","","","","","","","","","",""
"","confidence_first","html-keyboard-response","218","371550","0.0-68.0-2.0","1476.7000000029802","Confidence judgement (first response)","","","-1","-1","","","","right","69","50","69","true","51","","","","","","","","","","","","","","","","","","","","","","","","","","",""
"","no_advice_display","html-button-response","219","372350","0.0-68.0-5.0-0.0","798","noAdvice","0","","-1","-1","","","","","","","","","","","","","","","","","","","","","","","","","","","","","","","","","","","",""
"","blank_screen","html-keyboard-response","220","373153","0.0-68.0-5.0-1.0","null","blank","null","","-1","-1","","","","","","","","","","","","","","","","","","","","","","","","","","","","","","","","","","","",""
"","confidence_second","html-keyboard-response","221","374250","0.0-68.0-6.0","1095.7999999970198","Confidence judgment (second response)","","","-1","-1","","","","right","69","50","69","true","51","","","","","","","","","","","","","","","","","","","","","","","","","","",""
"","consolidated-trial-data","consolidated-trial-data","222","374252","0.0-69.0","null","consolidated-trial-data","null","","","","","","","","","","","","","","1","1","16","248","300","52","right","69","true","1476.7000000029802","3","no","left","right","69","false","true","1095.7999999970198","","","","","","","",""
"","attncheck","html-button-response","223","376567","0.0-70.0","2313","attncheck","0","","","","","","","","","","","","","","","","","","","","","","","","","","","","","","","","","true","Stop","","","","",""
"","fixation","html-keyboard-response","224","377981","0.0-71.0-0.0","null","fixation","null","","-1","-1","","","","","","","","","","","","","","","","","","","","","","","","","","","","","","","","","","","",""
"","numerosity","html-keyboard-response","225","378484","0.0-71.0-1.0","null","[Dot display: left=300, right=249, diff=51]","null","","-1","-1","300","249","51","","","","","","","","","","","","","","","","","","","","","","","","","","","","","","","","",""
"","confidence_first","html-keyboard-response","226","380068","0.0-71.0-2.0","1581.5999999940395","Confidence judgement (first response)","","","-1","-1","","","","left","60.5","60.5","50","true","51","","","","","","","","","","","","","","","","","","","","","","","","","","",""
"","advice_choice","html-button-response","227","380850","0.0-71.0-3.0-0.0","780","[advice choice Y,N]","0","","-1","-1","","","","","","","","","","","","","","","","","","","","","","","","","","","","","","","","","","","",""
"","show_advice","html-keyboard-response","228","381652","0.0-71.0-3.0-1.0-0.0","null","[advice: left]","null","","-1","-1","","","","","","","","","","","","","","","","","","","","","","","","","","","","","left","","","","","","",""
"","confidence_second","html-keyboard-response","229","382235","0.0-71.0-6.0","579.5","Confidence judgment (second response)","","","-1","-1","","","","left","60.5","60.5","50","true","51","","","","","","","","","","","","","","","","","","","","","","","","","","",""
"","consolidated-trial-data","consolidated-trial-data","230","382237","0.0-72.0","null","consolidated-trial-data","null","","","","","","","","","","","","","","1","2","17","300","249","51","left","60.5","true","1581.5999999940395","1","yes","left","left","60.5","true","true","579.5","","","","","","","",""
"","fixation","html-keyboard-response","231","383674","0.0-73.0-0.0","null","fixation","null","","-1","-1","","","","","","","","","","","","","","","","","","","","","","","","","","","","","","","","","","","",""
"","numerosity","html-keyboard-response","232","384180","0.0-73.0-1.0","null","[Dot display: left=300, right=249, diff=51]","null","","-1","-1","300","249","51","","","","","","","","","","","","","","","","","","","","","","","","","","","","","","","","",""
"","confidence_first","html-keyboard-response","233","385534","0.0-73.0-2.0","1353","Confidence judgement (first response)","","","-1","-1","","","","left","62","62","50","true","51","","","","","","","","","","","","","","","","","","","","","","","","","","",""
"","advice_choice","html-button-response","234","386384","0.0-73.0-3.0-0.0","849","[advice choice Y,N]","0","","-1","-1","","","","","","","","","","","","","","","","","","","","","","","","","","","","","","","","","","","",""
"","show_advice","html-keyboard-response","235","387187","0.0-73.0-3.0-1.0-0.0","null","[advice: left]","null","","-1","-1","","","","","","","","","","","","","","","","","","","","","","","","","","","","","left","","","","","","",""
"","confidence_second","html-keyboard-response","236","387702","0.0-73.0-6.0","512.3999999910593","Confidence judgment (second response)","","","-1","-1","","","","left","62","62","50","true","51","","","","","","","","","","","","","","","","","","","","","","","","","","",""
"","consolidated-trial-data","consolidated-trial-data","237","387705","0.0-74.0","null","consolidated-trial-data","null","","","","","","","","","","","","","","1","3","18","300","249","51","left","62","true","1353","1","yes","left","left","62","true","true","512.3999999910593","","","","","","","",""
"","fixation","html-keyboard-response","238","389093","0.0-75.0-0.0","null","fixation","null","","-1","-1","","","","","","","","","","","","","","","","","","","","","","","","","","","","","","","","","","","",""
"","numerosity","html-keyboard-response","239","389598","0.0-75.0-1.0","null","[Dot display: left=249, right=300, diff=51]","null","","-1","-1","249","300","51","","","","","","","","","","","","","","","","","","","","","","","","","","","","","","","","",""
"","confidence_first","html-keyboard-response","240","391235","0.0-75.0-2.0","1633.9000000059605","Confidence judgement (first response)","","","-1","-1","","","","right","74.75","50","74.75","true","50","","","","","","","","","","","","","","","","","","","","","","","","","","",""
"","forced_advice_display","html-button-response","241","391967","0.0-75.0-4.0-0.0","731","forcedAdvice","0","","-1","-1","","","","","","","","","","","","","","","","","","","","","","","","","","","","","","","","","","","",""
"","show_advice","html-keyboard-response","242","392770","0.0-75.0-4.0-1.0","null","[advice: left]","null","","-1","-1","","","","","","","","","","","","","","","","","","","","","","","","","","","","","left","","","","","","",""
"","confidence_second","html-keyboard-response","243","395769","0.0-75.0-6.0","2996.5","Confidence judgment (second response)","","","-1","-1","","","","right","65","50","65","true","50","","","","","","","","","","","","","","","","","","","","","","","","","","",""
"","consolidated-trial-data","consolidated-trial-data","244","395770","0.0-76.0","null","consolidated-trial-data","null","","","","","","","","","","","","","","1","4","19","249","300","51","right","74.75","true","1633.9000000059605","2","yes","left","right","65","false","true","2996.5","","","","","","","",""
"","fixation","html-keyboard-response","245","397256","0.0-77.0-0.0","null","fixation","null","","-1","-1","","","","","","","","","","","","","","","","","","","","","","","","","","","","","","","","","","","",""
"","numerosity","html-keyboard-response","246","397761","0.0-77.0-1.0","null","[Dot display: left=300, right=250, diff=50]","null","","-1","-1","300","250","50","","","","","","","","","","","","","","","","","","","","","","","","","","","","","","","","",""
"","confidence_first","html-keyboard-response","247","399502","0.0-77.0-2.0","1739","Confidence judgement (first response)","","","-1","-1","","","","right","56.5","50","56.5","false","52","","","","","","","","","","","","","","","","","","","","","","","","","","",""
"","advice_choice","html-button-response","248","400935","0.0-77.0-3.0-0.0","1432","[advice choice Y,N]","0","","-1","-1","","","","","","","","","","","","","","","","","","","","","","","","","","","","","","","","","","","",""
"","show_advice","html-keyboard-response","249","401737","0.0-77.0-3.0-1.0-0.0","null","[advice: left]","null","","-1","-1","","","","","","","","","","","","","","","","","","","","","","","","","","","","","left","","","","","","",""
"","confidence_second","html-keyboard-response","250","404119","0.0-77.0-6.0","2380.1000000089407","Confidence judgment (second response)","","","-1","-1","","","","left","52.25","52.25","50","true","52","","","","","","","","","","","","","","","","","","","","","","","","","","",""
"","consolidated-trial-data","consolidated-trial-data","251","404121","0.0-78.0","null","consolidated-trial-data","null","","","","","","","","","","","","","","1","5","20","300","250","50","right","56.5","false","1739","1","yes","left","left","52.25","true","true","2380.1000000089407","","","","","","","",""
"","fixation","html-keyboard-response","252","405515","0.0-79.0-0.0","null","fixation","null","","-1","-1","","","","","","","","","","","","","","","","","","","","","","","","","","","","","","","","","","","",""
"","numerosity","html-keyboard-response","253","406020","0.0-79.0-1.0","null","[Dot display: left=248, right=300, diff=52]","null","","-1","-1","248","300","52","","","","","","","","","","","","","","","","","","","","","","","","","","","","","","","","",""
"","confidence_first","html-keyboard-response","254","407752","0.0-79.0-2.0","1730.6000000089407","Confidence judgement (first response)","","","-1","-1","","","","right","54.25","50","54.25","true","51","","","","","","","","","","","","","","","","","","","","","","","","","","",""
"","forced_advice_display","html-button-response","255","408734","0.0-79.0-4.0-0.0","982","forcedAdvice","0","","-1","-1","","","","","","","","","","","","","","","","","","","","","","","","","","","","","","","","","","","",""
"","show_advice","html-keyboard-response","256","409538","0.0-79.0-4.0-1.0","null","[advice: left]","null","","-1","-1","","","","","","","","","","","","","","","","","","","","","","","","","","","","","left","","","","","","",""
"","confidence_second","html-keyboard-response","257","411318","0.0-79.0-6.0","1778.5","Confidence judgment (second response)","","","-1","-1","","","","left","51.5","51.5","50","false","51","","","","","","","","","","","","","","","","","","","","","","","","","","",""
"","consolidated-trial-data","consolidated-trial-data","258","411319","0.0-80.0","null","consolidated-trial-data","null","","","","","","","","","","","","","","1","6","21","248","300","52","right","54.25","true","1730.6000000089407","2","yes","left","left","51.5","false","false","1778.5","","","","","","","",""
"","fixation","html-keyboard-response","259","412760","0.0-81.0-0.0","null","fixation","null","","-1","-1","","","","","","","","","","","","","","","","","","","","","","","","","","","","","","","","","","","",""
"","numerosity","html-keyboard-response","260","413264","0.0-81.0-1.0","null","[Dot display: left=300, right=249, diff=51]","null","","-1","-1","300","249","51","","","","","","","","","","","","","","","","","","","","","","","","","","","","","","","","",""
"","confidence_first","html-keyboard-response","261","414651","0.0-81.0-2.0","1385.5","Confidence judgement (first response)","","","-1","-1","","","","left","60.5","60.5","50","true","51","","","","","","","","","","","","","","","","","","","","","","","","","","",""
"","no_advice_display","html-button-response","262","415470","0.0-81.0-5.0-0.0","817","noAdvice","0","","-1","-1","","","","","","","","","","","","","","","","","","","","","","","","","","","","","","","","","","","",""
"","blank_screen","html-keyboard-response","263","416273","0.0-81.0-5.0-1.0","null","blank","null","","-1","-1","","","","","","","","","","","","","","","","","","","","","","","","","","","","","","","","","","","",""
"","confidence_second","html-keyboard-response","264","417670","0.0-81.0-6.0","1394.1000000089407","Confidence judgment (second response)","","","-1","-1","","","","left","60.5","60.5","50","true","51","","","","","","","","","","","","","","","","","","","","","","","","","","",""
"","consolidated-trial-data","consolidated-trial-data","265","417671","0.0-82.0","null","consolidated-trial-data","null","","","","","","","","","","","","","","1","7","22","300","249","51","left","60.5","true","1385.5","3","yes","left","left","60.5","true","true","1394.1000000089407","","","","","","","",""
"","fixation","html-keyboard-response","266","418892","0.0-83.0-0.0","null","fixation","null","","-1","-1","","","","","","","","","","","","","","","","","","","","","","","","","","","","","","","","","","","",""
"","numerosity","html-keyboard-response","267","419397","0.0-83.0-1.0","null","[Dot display: left=300, right=249, diff=51]","null","","-1","-1","300","249","51","","","","","","","","","","","","","","","","","","","","","","","","","","","","","","","","",""
"","confidence_first","html-keyboard-response","268","420387","0.0-83.0-2.0","988.2000000029802","Confidence judgement (first response)","","","-1","-1","","","","left","60.5","60.5","50","true","51","","","","","","","","","","","","","","","","","","","","","","","","","","",""
"","forced_advice_display","html-button-response","269","421053","0.0-83.0-4.0-0.0","664","forcedAdvice","0","","-1","-1","","","","","","","","","","","","","","","","","","","","","","","","","","","","","","","","","","","",""
"","show_advice","html-keyboard-response","270","421856","0.0-83.0-4.0-1.0","null","[advice: left]","null","","-1","-1","","","","","","","","","","","","","","","","","","","","","","","","","","","","","left","","","","","","",""
"","confidence_second","html-keyboard-response","271","422386","0.0-83.0-6.0","527.2999999970198","Confidence judgment (second response)","","","-1","-1","","","","left","60.5","60.5","50","true","51","","","","","","","","","","","","","","","","","","","","","","","","","","",""
"","consolidated-trial-data","consolidated-trial-data","272","422387","0.0-84.0","null","consolidated-trial-data","null","","","","","","","","","","","","","","1","8","23","300","249","51","left","60.5","true","988.2000000029802","2","yes","left","left","60.5","true","true","527.2999999970198","","","","","","","",""
"","fixation","html-keyboard-response","273","423853","0.0-85.0-0.0","null","fixation","null","","-1","-1","","","","","","","","","","","","","","","","","","","","","","","","","","","","","","","","","","","",""
"","numerosity","html-keyboard-response","274","424358","0.0-85.0-1.0","null","[Dot display: left=300, right=249, diff=51]","null","","-1","-1","300","249","51","","","","","","","","","","","","","","","","","","","","","","","","","","","","","","","","",""
"","confidence_first","html-keyboard-response","275","425636","0.0-85.0-2.0","1276.6000000089407","Confidence judgement (first response)","","","-1","-1","","","","left","70.75","70.75","50","true","51","","","","","","","","","","","","","","","","","","","","","","","","","","",""
"","no_advice_display","html-button-response","276","426404","0.0-85.0-5.0-0.0","765","noAdvice","0","","-1","-1","","","","","","","","","","","","","","","","","","","","","","","","","","","","","","","","","","","",""
"","blank_screen","html-keyboard-response","277","427205","0.0-85.0-5.0-1.0","null","blank","null","","-1","-1","","","","","","","","","","","","","","","","","","","","","","","","","","","","","","","","","","","",""
"","confidence_second","html-keyboard-response","278","428320","0.0-85.0-6.0","1112.4000000059605","Confidence judgment (second response)","","","-1","-1","","","","left","70.75","70.75","50","true","51","","","","","","","","","","","","","","","","","","","","","","","","","","",""
"","consolidated-trial-data","consolidated-trial-data","279","428322","0.0-86.0","null","consolidated-trial-data","null","","","","","","","","","","","","","","1","9","24","300","249","51","left","70.75","true","1276.6000000089407","3","yes","left","left","70.75","true","true","1112.4000000059605","","","","","","","",""
"","fixation","html-keyboard-response","280","429727","0.0-87.0-0.0","null","fixation","null","","-1","-1","","","","","","","","","","","","","","","","","","","","","","","","","","","","","","","","","","","",""
"","numerosity","html-keyboard-response","281","430234","0.0-87.0-1.0","null","[Dot display: left=249, right=300, diff=51]","null","","-1","-1","249","300","51","","","","","","","","","","","","","","","","","","","","","","","","","","","","","","","","",""
"","confidence_first","html-keyboard-response","282","432719","0.0-87.0-2.0","2483","Confidence judgement (first response)","","","-1","-1","","","","left","57.5","57.5","50","false","52","","","","","","","","","","","","","","","","","","","","","","","","","","",""
"","forced_advice_display","html-button-response","283","433621","0.0-87.0-4.0-0.0","900","forcedAdvice","0","","-1","-1","","","","","","","","","","","","","","","","","","","","","","","","","","","","","","","","","","","",""
"","show_advice","html-keyboard-response","284","434424","0.0-87.0-4.0-1.0","null","[advice: left]","null","","-1","-1","","","","","","","","","","","","","","","","","","","","","","","","","","","","","left","","","","","","",""
"","confidence_second","html-keyboard-response","285","435054","0.0-87.0-6.0","627.5","Confidence judgment (second response)","","","-1","-1","","","","left","57.5","57.5","50","false","52","","","","","","","","","","","","","","","","","","","","","","","","","","",""
"","consolidated-trial-data","consolidated-trial-data","286","435056","0.0-88.0","null","consolidated-trial-data","null","","","","","","","","","","","","","","1","10","25","249","300","51","left","57.5","false","2483","2","yes","left","left","57.5","false","false","627.5","","","","","","","",""
"","fixation","html-keyboard-response","287","436386","0.0-89.0-0.0","null","fixation","null","","-1","-1","","","","","","","","","","","","","","","","","","","","","","","","","","","","","","","","","","","",""
"","numerosity","html-keyboard-response","288","436890","0.0-89.0-1.0","null","[Dot display: left=248, right=300, diff=52]","null","","-1","-1","248","300","52","","","","","","","","","","","","","","","","","","","","","","","","","","","","","","","","",""
"","confidence_first","html-keyboard-response","289","438386","0.0-89.0-2.0","1495","Confidence judgement (first response)","","","-1","-1","","","","right","55.75","50","55.75","true","52","","","","","","","","","","","","","","","","","","","","","","","","","","",""
"","advice_choice","html-button-response","290","439153","0.0-89.0-3.0-0.0","765","[advice choice Y,N]","0","","-1","-1","","","","","","","","","","","","","","","","","","","","","","","","","","","","","","","","","","","",""
"","show_advice","html-keyboard-response","291","439956","0.0-89.0-3.0-1.0-0.0","null","[advice: right]","null","","-1","-1","","","","","","","","","","","","","","","","","","","","","","","","","","","","","right","","","","","","",""
"","confidence_second","html-keyboard-response","292","440537","0.0-89.0-6.0","579.3999999910593","Confidence judgment (second response)","","","-1","-1","","","","right","55.75","50","55.75","true","52","","","","","","","","","","","","","","","","","","","","","","","","","","",""
"","consolidated-trial-data","consolidated-trial-data","293","440540","0.0-90.0","null","consolidated-trial-data","null","","","","","","","","","","","","","","1","11","26","248","300","52","right","55.75","true","1495","1","yes","right","right","55.75","true","true","579.3999999910593","","","","","","","",""
"","fixation","html-keyboard-response","294","441888","0.0-91.0-0.0","null","fixation","null","","-1","-1","","","","","","","","","","","","","","","","","","","","","","","","","","","","","","","","","","","",""
"","numerosity","html-keyboard-response","295","442391","0.0-91.0-1.0","null","[Dot display: left=300, right=248, diff=52]","null","","-1","-1","300","248","52","","","","","","","","","","","","","","","","","","","","","","","","","","","","","","","","",""
"","confidence_first","html-keyboard-response","296","444271","0.0-91.0-2.0","1877.7000000029802","Confidence judgement (first response)","","","-1","-1","","","","left","53.25","53.25","50","true","51","","","","","","","","","","","","","","","","","","","","","","","","","","",""
"","forced_advice_display","html-button-response","297","444920","0.0-91.0-4.0-0.0","648","forcedAdvice","0","","-1","-1","","","","","","","","","","","","","","","","","","","","","","","","","","","","","","","","","","","",""
"","show_advice","html-keyboard-response","298","445723","0.0-91.0-4.0-1.0","null","[advice: left]","null","","-1","-1","","","","","","","","","","","","","","","","","","","","","","","","","","","","","left","","","","","","",""
"","confidence_second","html-keyboard-response","299","446270","0.0-91.0-6.0","544.6000000089407","Confidence judgment (second response)","","","-1","-1","","","","left","53.25","53.25","50","true","51","","","","","","","","","","","","","","","","","","","","","","","","","","",""
"","consolidated-trial-data","consolidated-trial-data","300","446271","0.0-92.0","null","consolidated-trial-data","null","","","","","","","","","","","","","","1","12","27","300","248","52","left","53.25","true","1877.7000000029802","2","yes","left","left","53.25","true","true","544.6000000089407","","","","","","","",""
"","fixation","html-keyboard-response","301","447480","0.0-93.0-0.0","null","fixation","null","","-1","-1","","","","","","","","","","","","","","","","","","","","","","","","","","","","","","","","","","","",""
"","numerosity","html-keyboard-response","302","447986","0.0-93.0-1.0","null","[Dot display: left=300, right=249, diff=51]","null","","-1","-1","300","249","51","","","","","","","","","","","","","","","","","","","","","","","","","","","","","","","","",""
"","confidence_first","html-keyboard-response","303","449338","0.0-93.0-2.0","1350","Confidence judgement (first response)","","","-1","-1","","","","left","53.75","53.75","50","true","51","","","","","","","","","","","","","","","","","","","","","","","","","","",""
"","advice_choice","html-button-response","304","450353","0.0-93.0-3.0-0.0","1014","[advice choice Y,N]","0","","-1","-1","","","","","","","","","","","","","","","","","","","","","","","","","","","","","","","","","","","",""
"","show_advice","html-keyboard-response","305","451156","0.0-93.0-3.0-1.0-0.0","null","[advice: left]","null","","-1","-1","","","","","","","","","","","","","","","","","","","","","","","","","","","","","left","","","","","","",""
"","confidence_second","html-keyboard-response","306","453203","0.0-93.0-6.0","2045.5999999940395","Confidence judgment (second response)","","","-1","-1","","","","left","59","59","50","true","51","","","","","","","","","","","","","","","","","","","","","","","","","","",""
"","consolidated-trial-data","consolidated-trial-data","307","453204","0.0-94.0","null","consolidated-trial-data","null","","","","","","","","","","","","","","1","13","28","300","249","51","left","53.75","true","1350","1","yes","left","left","59","true","true","2045.5999999940395","","","","","","","",""
"","fixation","html-keyboard-response","308","454634","0.0-95.0-0.0","null","fixation","null","","-1","-1","","","","","","","","","","","","","","","","","","","","","","","","","","","","","","","","","","","",""
"","numerosity","html-keyboard-response","309","455139","0.0-95.0-1.0","null","[Dot display: left=249, right=300, diff=51]","null","","-1","-1","249","300","51","","","","","","","","","","","","","","","","","","","","","","","","","","","","","","","","",""
"","confidence_first","html-keyboard-response","310","456772","0.0-95.0-2.0","1630.199999988079","Confidence judgement (first response)","","","-1","-1","","","","right","84.5","50","84.5","true","51","","","","","","","","","","","","","","","","","","","","","","","","","","",""
"","no_advice_display","html-button-response","311","457954","0.0-95.0-5.0-0.0","1181","noAdvice","0","","-1","-1","","","","","","","","","","","","","","","","","","","","","","","","","","","","","","","","","","","",""
"","blank_screen","html-keyboard-response","312","458757","0.0-95.0-5.0-1.0","null","blank","null","","-1","-1","","","","","","","","","","","","","","","","","","","","","","","","","","","","","","","","","","","",""
"","confidence_second","html-keyboard-response","313","460154","0.0-95.0-6.0","1395.2999999970198","Confidence judgment (second response)","","","-1","-1","","","","right","84.5","50","84.5","true","51","","","","","","","","","","","","","","","","","","","","","","","","","","",""
"","consolidated-trial-data","consolidated-trial-data","314","460155","0.0-96.0","null","consolidated-trial-data","null","","","","","","","","","","","","","","1","14","29","249","300","51","right","84.5","true","1630.199999988079","3","yes","left","right","84.5","false","true","1395.2999999970198","","","","","","","",""
"","block_message","html-button-response","315","461588","0.0-97.0","1430","block message","0","","","","","","","","","","","","","3","","","","","","","","","","","","","","","","","","","","","","","","","",""
"","fixation","html-keyboard-response","316","463069","0.0-98.0-0.0","null","fixation","null","","-1","-1","","","","","","","","","","","","","","","","","","","","","","","","","","","","","","","","","","","",""
"","numerosity","html-keyboard-response","317","463574","0.0-98.0-1.0","null","[Dot display: left=249, right=300, diff=51]","null","","-1","-1","249","300","51","","","","","","","","","","","","","","","","","","","","","","","","","","","","","","","","",""
"","confidence_first","html-keyboard-response","318","465155","0.0-98.0-2.0","1579","Confidence judgement (first response)","","","-1","-1","","","","right","78","50","78","true","50","","","","","","","","","","","","","","","","","","","","","","","","","","",""
"","no_advice_display","html-button-response","319","465855","0.0-98.0-5.0-0.0","699","noAdvice","0","","-1","-1","","","","","","","","","","","","","","","","","","","","","","","","","","","","","","","","","","","",""
"","blank_screen","html-keyboard-response","320","466658","0.0-98.0-5.0-1.0","null","blank","null","","-1","-1","","","","","","","","","","","","","","","","","","","","","","","","","","","","","","","","","","","",""
"","confidence_second","html-keyboard-response","321","467605","0.0-98.0-6.0","945.3999999910593","Confidence judgment (second response)","","","-1","-1","","","","right","78","50","78","true","50","","","","","","","","","","","","","","","","","","","","","","","","","","",""
"","consolidated-trial-data","consolidated-trial-data","322","467607","0.0-99.0","null","consolidated-trial-data","null","","","","","","","","","","","","","","2","0","30","249","300","51","right","78","true","1579","3","yes","left","right","78","false","true","945.3999999910593","","","","","","","",""
"","fixation","html-keyboard-response","323","469106","0.0-100.0-0.0","null","fixation","null","","-1","-1","","","","","","","","","","","","","","","","","","","","","","","","","","","","","","","","","","","",""
"","numerosity","html-keyboard-response","324","469612","0.0-100.0-1.0","null","[Dot display: left=250, right=300, diff=50]","null","","-1","-1","250","300","50","","","","","","","","","","","","","","","","","","","","","","","","","","","","","","","","",""
"","confidence_first","html-keyboard-response","325","471171","0.0-100.0-2.0","1557.800000011921","Confidence judgement (first response)","","","-1","-1","","","","right","62.5","50","62.5","true","50","","","","","","","","","","","","","","","","","","","","","","","","","","",""
"","no_advice_display","html-button-response","326","471821","0.0-100.0-5.0-0.0","649","noAdvice","0","","-1","-1","","","","","","","","","","","","","","","","","","","","","","","","","","","","","","","","","","","",""
"","blank_screen","html-keyboard-response","327","472623","0.0-100.0-5.0-1.0","null","blank","null","","-1","-1","","","","","","","","","","","","","","","","","","","","","","","","","","","","","","","","","","","",""
"","confidence_second","html-keyboard-response","328","474005","0.0-100.0-6.0","1380.199999988079","Confidence judgment (second response)","","","-1","-1","","","","right","62.5","50","62.5","true","50","","","","","","","","","","","","","","","","","","","","","","","","","","",""
"","consolidated-trial-data","consolidated-trial-data","329","474006","0.0-101.0","null","consolidated-trial-data","null","","","","","","","","","","","","","","2","1","31","250","300","50","right","62.5","true","1557.800000011921","3","yes","left","right","62.5","false","true","1380.199999988079","","","","","","","",""
"","fixation","html-keyboard-response","330","475432","0.0-102.0-0.0","null","fixation","null","","-1","-1","","","","","","","","","","","","","","","","","","","","","","","","","","","","","","","","","","","",""
"","numerosity","html-keyboard-response","331","475937","0.0-102.0-1.0","null","[Dot display: left=300, right=250, diff=50]","null","","-1","-1","300","250","50","","","","","","","","","","","","","","","","","","","","","","","","","","","","","","","","",""
"","confidence_first","html-keyboard-response","332","477338","0.0-102.0-2.0","1398.8999999910593","Confidence judgement (first response)","","","-1","-1","","","","left","69.25","69.25","50","true","50","","","","","","","","","","","","","","","","","","","","","","","","","","",""
"","advice_choice","html-button-response","333","478155","0.0-102.0-3.0-0.0","816","[advice choice Y,N]","0","","-1","-1","","","","","","","","","","","","","","","","","","","","","","","","","","","","","","","","","","","",""
"","show_advice","html-keyboard-response","334","478958","0.0-102.0-3.0-1.0-0.0","null","[advice: left]","null","","-1","-1","","","","","","","","","","","","","","","","","","","","","","","","","","","","","left","","","","","","",""
"","confidence_second","html-keyboard-response","335","479789","0.0-102.0-6.0","829.1999999880791","Confidence judgment (second response)","","","-1","-1","","","","left","69.25","69.25","50","true","50","","","","","","","","","","","","","","","","","","","","","","","","","","",""
"","consolidated-trial-data","consolidated-trial-data","336","479792","0.0-103.0","null","consolidated-trial-data","null","","","","","","","","","","","","","","2","2","32","300","250","50","left","69.25","true","1398.8999999910593","1","yes","left","left","69.25","true","true","829.1999999880791","","","","","","","",""
"","fixation","html-keyboard-response","337","481017","0.0-104.0-0.0","null","fixation","null","","-1","-1","","","","","","","","","","","","","","","","","","","","","","","","","","","","","","","","","","","",""
"","numerosity","html-keyboard-response","338","481523","0.0-104.0-1.0","null","[Dot display: left=250, right=300, diff=50]","null","","-1","-1","250","300","50","","","","","","","","","","","","","","","","","","","","","","","","","","","","","","","","",""
"","confidence_first","html-keyboard-response","339","483305","0.0-104.0-2.0","1779.5999999940395","Confidence judgement (first response)","","","-1","-1","","","","right","52","50","52","true","50","","","","","","","","","","","","","","","","","","","","","","","","","","",""
"","advice_choice","html-button-response","340","484055","0.0-104.0-3.0-0.0","749","[advice choice Y,N]","0","","-1","-1","","","","","","","","","","","","","","","","","","","","","","","","","","","","","","","","","","","",""
"","show_advice","html-keyboard-response","341","484858","0.0-104.0-3.0-1.0-0.0","null","[advice: left]","null","","-1","-1","","","","","","","","","","","","","","","","","","","","","","","","","","","","","left","","","","","","",""
"","confidence_second","html-keyboard-response","342","486289","0.0-104.0-6.0","1428.7000000029802","Confidence judgment (second response)","","","-1","-1","","","","left","54.75","54.75","50","false","50","","","","","","","","","","","","","","","","","","","","","","","","","","",""
"","consolidated-trial-data","consolidated-trial-data","343","486290","0.0-105.0","null","consolidated-trial-data","null","","","","","","","","","","","","","","2","3","33","250","300","50","right","52","true","1779.5999999940395","1","yes","left","left","54.75","false","false","1428.7000000029802","","","","","","","",""
"","fixation","html-keyboard-response","344","487666","0.0-106.0-0.0","null","fixation","null","","-1","-1","","","","","","","","","","","","","","","","","","","","","","","","","","","","","","","","","","","",""
"","numerosity","html-keyboard-response","345","488174","0.0-106.0-1.0","null","[Dot display: left=250, right=300, diff=50]","null","","-1","-1","250","300","50","","","","","","","","","","","","","","","","","","","","","","","","","","","","","","","","",""
"","confidence_first","html-keyboard-response","346","489674","0.0-106.0-2.0","1496.5999999940395","Confidence judgement (first response)","","","-1","-1","","","","right","62.5","50","62.5","true","49","","","","","","","","","","","","","","","","","","","","","","","","","","",""
"","forced_advice_display","html-button-response","347","490490","0.0-106.0-4.0-0.0","814","forcedAdvice","0","","-1","-1","","","","","","","","","","","","","","","","","","","","","","","","","","","","","","","","","","","",""
"","show_advice","html-keyboard-response","348","491293","0.0-106.0-4.0-1.0","null","[advice: right]","null","","-1","-1","","","","","","","","","","","","","","","","","","","","","","","","","","","","","right","","","","","","",""
"","confidence_second","html-keyboard-response","349","491840","0.0-106.0-6.0","544","Confidence judgment (second response)","","","-1","-1","","","","right","62.5","50","62.5","true","49","","","","","","","","","","","","","","","","","","","","","","","","","","",""
"","consolidated-trial-data","consolidated-trial-data","350","491842","0.0-107.0","null","consolidated-trial-data","null","","","","","","","","","","","","","","2","4","34","250","300","50","right","62.5","true","1496.5999999940395","2","yes","right","right","62.5","true","true","544","","","","","","","",""
"","fixation","html-keyboard-response","351","493309","0.0-108.0-0.0","null","fixation","null","","-1","-1","","","","","","","","","","","","","","","","","","","","","","","","","","","","","","","","","","","",""
"","numerosity","html-keyboard-response","352","493815","0.0-108.0-1.0","null","[Dot display: left=300, right=251, diff=49]","null","","-1","-1","300","251","49","","","","","","","","","","","","","","","","","","","","","","","","","","","","","","","","",""
"","confidence_first","html-keyboard-response","353","495356","0.0-108.0-2.0","1539.9000000059605","Confidence judgement (first response)","","","-1","-1","","","","right","69","50","69","false","50","","","","","","","","","","","","","","","","","","","","","","","","","","",""
"","advice_choice","html-button-response","354","496223","0.0-108.0-3.0-0.0","866","[advice choice Y,N]","0","","-1","-1","","","","","","","","","","","","","","","","","","","","","","","","","","","","","","","","","","","",""
"","show_advice","html-keyboard-response","355","497026","0.0-108.0-3.0-1.0-0.0","null","[advice: left]","null","","-1","-1","","","","","","","","","","","","","","","","","","","","","","","","","","","","","left","","","","","","",""
"","confidence_second","html-keyboard-response","356","499790","0.0-108.0-6.0","2762.5999999940395","Confidence judgment (second response)","","","-1","-1","","","","right","62","50","62","false","50","","","","","","","","","","","","","","","","","","","","","","","","","","",""
"","consolidated-trial-data","consolidated-trial-data","357","499791","0.0-109.0","null","consolidated-trial-data","null","","","","","","","","","","","","","","2","5","35","300","251","49","right","69","false","1539.9000000059605","1","yes","left","right","62","true","false","2762.5999999940395","","","","","","","",""
"","fixation","html-keyboard-response","358","501231","0.0-110.0-0.0","null","fixation","null","","-1","-1","","","","","","","","","","","","","","","","","","","","","","","","","","","","","","","","","","","",""
"","numerosity","html-keyboard-response","359","501738","0.0-110.0-1.0","null","[Dot display: left=250, right=300, diff=50]","null","","-1","-1","250","300","50","","","","","","","","","","","","","","","","","","","","","","","","","","","","","","","","",""
"","confidence_first","html-keyboard-response","360","503224","0.0-110.0-2.0","1484.9000000059605","Confidence judgement (first response)","","","-1","-1","","","","right","87.5","50","87.5","true","50","","","","","","","","","","","","","","","","","","","","","","","","","","",""
"","forced_advice_display","html-button-response","361","503941","0.0-110.0-4.0-0.0","715","forcedAdvice","0","","-1","-1","","","","","","","","","","","","","","","","","","","","","","","","","","","","","","","","","","","",""
"","show_advice","html-keyboard-response","362","504744","0.0-110.0-4.0-1.0","null","[advice: right]","null","","-1","-1","","","","","","","","","","","","","","","","","","","","","","","","","","","","","right","","","","","","",""
"","confidence_second","html-keyboard-response","363","505724","0.0-110.0-6.0","977.5","Confidence judgment (second response)","","","-1","-1","","","","right","87.5","50","87.5","true","50","","","","","","","","","","","","","","","","","","","","","","","","","","",""
"","consolidated-trial-data","consolidated-trial-data","364","505726","0.0-111.0","null","consolidated-trial-data","null","","","","","","","","","","","","","","2","6","36","250","300","50","right","87.5","true","1484.9000000059605","2","yes","right","right","87.5","true","true","977.5","","","","","","","",""
"","fixation","html-keyboard-response","365","506969","0.0-112.0-0.0","null","fixation","null","","-1","-1","","","","","","","","","","","","","","","","","","","","","","","","","","","","","","","","","","","",""
"","numerosity","html-keyboard-response","366","507475","0.0-112.0-1.0","null","[Dot display: left=250, right=300, diff=50]","null","","-1","-1","250","300","50","","","","","","","","","","","","","","","","","","","","","","","","","","","","","","","","",""
"","confidence_first","html-keyboard-response","367","508873","0.0-112.0-2.0","1396.2000000029802","Confidence judgement (first response)","","","-1","-1","","","","right","73.75","50","73.75","true","50","","","","","","","","","","","","","","","","","","","","","","","","","","",""
"","no_advice_display","html-button-response","368","509741","0.0-112.0-5.0-0.0","866","noAdvice","0","","-1","-1","","","","","","","","","","","","","","","","","","","","","","","","","","","","","","","","","","","",""
"","blank_screen","html-keyboard-response","369","510543","0.0-112.0-5.0-1.0","null","blank","null","","-1","-1","","","","","","","","","","","","","","","","","","","","","","","","","","","","","","","","","","","",""
"","confidence_second","html-keyboard-response","370","511808","0.0-112.0-6.0","1262.8999999910593","Confidence judgment (second response)","","","-1","-1","","","","right","73.75","50","73.75","true","50","","","","","","","","","","","","","","","","","","","","","","","","","","",""
"","consolidated-trial-data","consolidated-trial-data","371","511811","0.0-113.0","null","consolidated-trial-data","null","","","","","","","","","","","","","","2","7","37","250","300","50","right","73.75","true","1396.2000000029802","3","yes","right","right","73.75","true","true","1262.8999999910593","","","","","","","",""
"","fixation","html-keyboard-response","372","513024","0.0-114.0-0.0","null","fixation","null","","-1","-1","","","","","","","","","","","","","","","","","","","","","","","","","","","","","","","","","","","",""
"","numerosity","html-keyboard-response","373","513529","0.0-114.0-1.0","null","[Dot display: left=250, right=300, diff=50]","null","","-1","-1","250","300","50","","","","","","","","","","","","","","","","","","","","","","","","","","","","","","","","",""
"","confidence_first","html-keyboard-response","374","515441","0.0-114.0-2.0","1910.1000000089407","Confidence judgement (first response)","","","-1","-1","","","","right","54.5","50","54.5","true","50","","","","","","","","","","","","","","","","","","","","","","","","","","",""
"","forced_advice_display","html-button-response","375","516090","0.0-114.0-4.0-0.0","648","forcedAdvice","0","","-1","-1","","","","","","","","","","","","","","","","","","","","","","","","","","","","","","","","","","","",""
"","show_advice","html-keyboard-response","376","516892","0.0-114.0-4.0-1.0","null","[advice: right]","null","","-1","-1","","","","","","","","","","","","","","","","","","","","","","","","","","","","","right","","","","","","",""
"","confidence_second","html-keyboard-response","377","518707","0.0-114.0-6.0","1813.1000000089407","Confidence judgment (second response)","","","-1","-1","","","","right","63.5","50","63.5","true","50","","","","","","","","","","","","","","","","","","","","","","","","","","",""
"","consolidated-trial-data","consolidated-trial-data","378","518709","0.0-115.0","null","consolidated-trial-data","null","","","","","","","","","","","","","","2","8","38","250","300","50","right","54.5","true","1910.1000000089407","2","yes","right","right","63.5","true","true","1813.1000000089407","","","","","","","",""
"","fixation","html-keyboard-response","379","520051","0.0-116.0-0.0","null","fixation","null","","-1","-1","","","","","","","","","","","","","","","","","","","","","","","","","","","","","","","","","","","",""
"","numerosity","html-keyboard-response","380","520555","0.0-116.0-1.0","null","[Dot display: left=300, right=250, diff=50]","null","","-1","-1","300","250","50","","","","","","","","","","","","","","","","","","","","","","","","","","","","","","","","",""
"","confidence_first","html-keyboard-response","381","521710","0.0-116.0-2.0","1152.3999999910593","Confidence judgement (first response)","","","-1","-1","","","","left","81.5","81.5","50","true","50","","","","","","","","","","","","","","","","","","","","","","","","","","",""
"","no_advice_display","html-button-response","382","522873","0.0-116.0-5.0-0.0","1162","noAdvice","0","","-1","-1","","","","","","","","","","","","","","","","","","","","","","","","","","","","","","","","","","","",""
"","blank_screen","html-keyboard-response","383","523675","0.0-116.0-5.0-1.0","null","blank","null","","-1","-1","","","","","","","","","","","","","","","","","","","","","","","","","","","","","","","","","","","",""
"","confidence_second","html-keyboard-response","384","524992","0.0-116.0-6.0","1314.7999999970198","Confidence judgment (second response)","","","-1","-1","","","","left","81.5","81.5","50","true","50","","","","","","","","","","","","","","","","","","","","","","","","","","",""
"","consolidated-trial-data","consolidated-trial-data","385","524994","0.0-117.0","null","consolidated-trial-data","null","","","","","","","","","","","","","","2","9","39","300","250","50","left","81.5","true","1152.3999999910593","3","yes","right","left","81.5","false","true","1314.7999999970198","","","","","","","",""
"","fixation","html-keyboard-response","386","526266","0.0-118.0-0.0","null","fixation","null","","-1","-1","","","","","","","","","","","","","","","","","","","","","","","","","","","","","","","","","","","",""
