"rt","stimulus","response","task","trial_type","trial_index","time_elapsed","internal_node_id","participant_age","participant_gender","pixels_per_unit","itrial","iblock","leftDots","rightDots","difference","selected_side","confidence_value","left_confidence","right_confidence","correct","threshold","block_num","advice_direction","block","trial","trialid","dotsLeft","dotsRight","dotsDiff","selectedSide_first","confidence_first","adviceCond","adviceChoice","adviceDir","selectedSide_second","confidence_second","adviceCorrect","attention_check_correct","target_button","top_prompt","bottom_prompt","top_response","bottom_response"
"4326","welcome_msg","0","welcome","html-button-response","0","4328","0.0-0.0","28","male","","","","","","","","","","","","","","","","","","","","","","","","","","","","","","","","","",""
"117521","PISdoc","0","PISdoc","html-button-response","1","121850","0.0-1.0","28","male","","","","","","","","","","","","","","","","","","","","","","","","","","","","","","","","","",""
"9967","","{""age"":""28"",""gender"":""male""}","demographics","survey-html-form","2","131819","0.0-2.0","28","male","","","","","","","","","","","","","","","","","","","","","","","","","","","","","","","","","",""
"70140","","{""felt_panic"":1,""no_initiative"":1,""felt_blue"":1,""was_intolerant"":2,""nothing_forward"":0,""felt_scared"":0,""over_react"":1,""felt_worry"":1,""no_relax"":2,""no_positive"":0,""felt_annoyed"":0,""EOL_thoughts"":0}","dass10","survey-likert","3","201959","0.0-3.0","28","male","","","","","","","","","","","","","","","","","","","","","","","","","","","","","","","","","",""
"10615","pracInstruc","0","pracInstructions","html-button-response","4","212576","0.0-4.0-0.0","28","male","","","","","","","","","","","","","","","","","","","","","","","","","","","","","","","","","",""
"10148","pracInstruc","0","pracInstructions","html-button-response","5","222726","0.0-4.0-0.1","28","male","","","","","","","","","","","","","","","","","","","","","","","","","","","","","","","","","",""
"4265","pracInstruc","0","pracInstructions","html-button-response","6","226993","0.0-4.0-0.2","28","male","","","","","","","","","","","","","","","","","","","","","","","","","","","","","","","","","",""
"1682","pracInstruc","0","pracInstructions","html-button-response","7","228676","0.0-4.0-0.3","28","male","","","","","","","","","","","","","","","","","","","","","","","","","","","","","","","","","",""
"3249","pracInstruc","0","pracInstructions","html-button-response","8","231925","0.0-4.0-0.4","28","male","","","","","","","","","","","","","","","","","","","","","","","","","","","","","","","","","",""
"11283","<div style= ""font-size: 24px; color: white"">
                        
                            <p>First, Please hold a credit card up to your screen.</p>
                            <p>Adjust this box until it matches the size of the credit card.</p>
                            <div id=""calibration-box"" style=""
                                width: 506px;
                                height: 319px;
                                border: 2px solid white;
                                background-color: rgba(255,255,255,0.2);
                                margin: 20px auto;
                                resize: both;
                                overflow: hidden;
                            ""></div>
                        </div>
                    ","0","","html-button-response","9","243210","0.0-5.0","28","male","132","","","","","","","","","","","","","","","","","","","","","","","","","","","","","","","","",""
"null","fixation","null","fixation","html-keyboard-response","10","243575","0.0-6.0-0.0","28","male","","-1","-1","","","","","","","","","","","","","","","","","","","","","","","","","","","","","","",""
"null","[Dot display: left=300, right=250, diff=50]","null","numerosity","html-keyboard-response","11","244087","0.0-6.0-1.0","28","male","","-1","-1","300","250","50","","","","","","","","","","","","","","","","","","","","","","","","","","","",""
"4584.999999999971","Confidence judgement (first response)","","confidence_first","html-keyboard-response","12","248677","0.0-6.0-2.0","28","male","","-1","-1","","","","left","50.75","50.75","50","true","19","","","","","","","","","","","","","","","","","","","","","",""
"null","fixation","null","fixation","html-keyboard-response","13","249100","0.0-6.0-0.1","28","male","","-1","-1","","","","","","","","","","","","","","","","","","","","","","","","","","","","","","",""
"null","[Dot display: left=250, right=300, diff=50]","null","numerosity","html-keyboard-response","14","249612","0.0-6.0-1.1","28","male","","-1","-1","250","300","50","","","","","","","","","","","","","","","","","","","","","","","","","","","",""
"4048","Confidence judgement (first response)","","confidence_first","html-keyboard-response","15","253661","0.0-6.0-2.1","28","male","","-1","-1","","","","right","55.5","50","55.5","true","19","","","","","","","","","","","","","","","","","","","","","",""
"null","fixation","null","fixation","html-keyboard-response","16","254070","0.0-6.0-0.2","28","male","","-1","-1","","","","","","","","","","","","","","","","","","","","","","","","","","","","","","",""
"null","[Dot display: left=300, right=250, diff=50]","null","numerosity","html-keyboard-response","17","254583","0.0-6.0-1.2","28","male","","-1","-1","300","250","50","","","","","","","","","","","","","","","","","","","","","","","","","","","",""
"11125","Confidence judgement (first response)","","confidence_first","html-keyboard-response","18","265709","0.0-6.0-2.2","28","male","","-1","-1","","","","left","51.25","51.25","50","true","19","","","","","","","","","","","","","","","","","","","","","",""
"null","fixation","null","fixation","html-keyboard-response","19","266006","0.0-6.0-0.3","28","male","","-1","-1","","","","","","","","","","","","","","","","","","","","","","","","","","","","","","",""
"null","[Dot display: left=281, right=300, diff=19]","null","numerosity","html-keyboard-response","20","266517","0.0-6.0-1.3","28","male","","-1","-1","281","300","19","","","","","","","","","","","","","","","","","","","","","","","","","","","",""
"2375","Confidence judgement (first response)","","confidence_first","html-keyboard-response","21","268893","0.0-6.0-2.3","28","male","","-1","-1","","","","right","67.75","50","67.75","true","16","","","","","","","","","","","","","","","","","","","","","",""
"null","fixation","null","fixation","html-keyboard-response","22","269254","0.0-6.0-0.4","28","male","","-1","-1","","","","","","","","","","","","","","","","","","","","","","","","","","","","","","",""
"null","[Dot display: left=284, right=300, diff=16]","null","numerosity","html-keyboard-response","23","269768","0.0-6.0-1.4","28","male","","-1","-1","284","300","16","","","","","","","","","","","","","","","","","","","","","","","","","","","",""
"3183","Confidence judgement (first response)","","confidence_first","html-keyboard-response","24","272952","0.0-6.0-2.4","28","male","","-1","-1","","","","right","73.25","50","73.25","true","14","","","","","","","","","","","","","","","","","","","","","",""
"null","fixation","null","fixation","html-keyboard-response","25","273228","0.0-6.0-0.5","28","male","","-1","-1","","","","","","","","","","","","","","","","","","","","","","","","","","","","","","",""
"null","[Dot display: left=286, right=300, diff=14]","null","numerosity","html-keyboard-response","26","273742","0.0-6.0-1.5","28","male","","-1","-1","286","300","14","","","","","","","","","","","","","","","","","","","","","","","","","","","",""
"3098.000000000058","Confidence judgement (first response)","","confidence_first","html-keyboard-response","27","276841","0.0-6.0-2.5","28","male","","-1","-1","","","","right","50.5","50","50.5","true","11","","","","","","","","","","","","","","","","","","","","","",""
"null","fixation","null","fixation","html-keyboard-response","28","277155","0.0-6.0-0.6","28","male","","-1","-1","","","","","","","","","","","","","","","","","","","","","","","","","","","","","","",""
"null","[Dot display: left=300, right=289, diff=11]","null","numerosity","html-keyboard-response","29","277667","0.0-6.0-1.6","28","male","","-1","-1","300","289","11","","","","","","","","","","","","","","","","","","","","","","","","","","","",""
"3366","Confidence judgement (first response)","","confidence_first","html-keyboard-response","30","281034","0.0-6.0-2.6","28","male","","-1","-1","","","","right","57.5","50","57.5","false","20","","","","","","","","","","","","","","","","","","","","","",""
"null","fixation","null","fixation","html-keyboard-response","31","281497","0.0-6.0-0.7","28","male","","-1","-1","","","","","","","","","","","","","","","","","","","","","","","","","","","","","","",""
"null","[Dot display: left=280, right=300, diff=20]","null","numerosity","html-keyboard-response","32","282009","0.0-6.0-1.7","28","male","","-1","-1","280","300","20","","","","","","","","","","","","","","","","","","","","","","","","","","","",""
"2763","Confidence judgement (first response)","","confidence_first","html-keyboard-response","33","284775","0.0-6.0-2.7","28","male","","-1","-1","","","","left","50.75","50.75","50","false","28","","","","","","","","","","","","","","","","","","","","","",""
"null","fixation","null","fixation","html-keyboard-response","34","285044","0.0-6.0-0.8","28","male","","-1","-1","","","","","","","","","","","","","","","","","","","","","","","","","","","","","","",""
"null","[Dot display: left=272, right=300, diff=28]","null","numerosity","html-keyboard-response","35","285554","0.0-6.0-1.8","28","male","","-1","-1","272","300","28","","","","","","","","","","","","","","","","","","","","","","","","","","","",""
"25528","Confidence judgement (first response)","","confidence_first","html-keyboard-response","36","311083","0.0-6.0-2.8","28","male","","-1","-1","","","","left","50.25","50.25","50","false","35","","","","","","","","","","","","","","","","","","","","","",""
"null","fixation","null","fixation","html-keyboard-response","37","311496","0.0-6.0-0.9","28","male","","-1","-1","","","","","","","","","","","","","","","","","","","","","","","","","","","","","","",""
"null","[Dot display: left=300, right=265, diff=35]","null","numerosity","html-keyboard-response","38","312008","0.0-6.0-1.9","28","male","","-1","-1","300","265","35","","","","","","","","","","","","","","","","","","","","","","","","","","","",""
"3001","Confidence judgement (first response)","","confidence_first","html-keyboard-response","39","315011","0.0-6.0-2.9","28","male","","-1","-1","","","","left","53","53","50","true","34","","","","","","","","","","","","","","","","","","","","","",""
"null","fixation","null","fixation","html-keyboard-response","40","315501","0.0-6.0-0.10","28","male","","-1","-1","","","","","","","","","","","","","","","","","","","","","","","","","","","","","","",""
"null","[Dot display: left=266, right=300, diff=34]","null","numerosity","html-keyboard-response","41","316013","0.0-6.0-1.10","28","male","","-1","-1","266","300","34","","","","","","","","","","","","","","","","","","","","","","","","","","","",""
"30132","Confidence judgement (first response)","","confidence_first","html-keyboard-response","42","346146","0.0-6.0-2.10","28","male","","-1","-1","","","","left","50.5","50.5","50","false","40","","","","","","","","","","","","","","","","","","","","","",""
"null","fixation","null","fixation","html-keyboard-response","43","346542","0.0-6.0-0.11","28","male","","-1","-1","","","","","","","","","","","","","","","","","","","","","","","","","","","","","","",""
"null","[Dot display: left=300, right=260, diff=40]","null","numerosity","html-keyboard-response","44","347054","0.0-6.0-1.11","28","male","","-1","-1","300","260","40","","","","","","","","","","","","","","","","","","","","","","","","","","","",""
"2135","Confidence judgement (first response)","","confidence_first","html-keyboard-response","45","349191","0.0-6.0-2.11","28","male","","-1","-1","","","","right","52.5","50","52.5","false","45","","","","","","","","","","","","","","","","","","","","","",""
"null","fixation","null","fixation","html-keyboard-response","46","349584","0.0-6.0-0.12","28","male","","-1","-1","","","","","","","","","","","","","","","","","","","","","","","","","","","","","","",""
"null","[Dot display: left=255, right=300, diff=45]","null","numerosity","html-keyboard-response","47","350095","0.0-6.0-1.12","28","male","","-1","-1","255","300","45","","","","","","","","","","","","","","","","","","","","","","","","","","","",""
"2080","Confidence judgement (first response)","","confidence_first","html-keyboard-response","48","352177","0.0-6.0-2.12","28","male","","-1","-1","","","","right","55.25","50","55.25","true","44","","","","","","","","","","","","","","","","","","","","","",""
"null","fixation","null","fixation","html-keyboard-response","49","352546","0.0-6.0-0.13","28","male","","-1","-1","","","","","","","","","","","","","","","","","","","","","","","","","","","","","","",""
"null","[Dot display: left=300, right=256, diff=44]","null","numerosity","html-keyboard-response","50","353058","0.0-6.0-1.13","28","male","","-1","-1","300","256","44","","","","","","","","","","","","","","","","","","","","","","","","","","","",""
"2981","Confidence judgement (first response)","","confidence_first","html-keyboard-response","51","356041","0.0-6.0-2.13","28","male","","-1","-1","","","","left","51.25","51.25","50","true","43","","","","","","","","","","","","","","","","","","","","","",""
"null","fixation","null","fixation","html-keyboard-response","52","356525","0.0-6.0-0.14","28","male","","-1","-1","","","","","","","","","","","","","","","","","","","","","","","","","","","","","","",""
"null","[Dot display: left=300, right=257, diff=43]","null","numerosity","html-keyboard-response","53","357038","0.0-6.0-1.14","28","male","","-1","-1","300","257","43","","","","","","","","","","","","","","","","","","","","","","","","","","","",""
"2551","Confidence judgement (first response)","","confidence_first","html-keyboard-response","54","359591","0.0-6.0-2.14","28","male","","-1","-1","","","","left","57.25","57.25","50","true","42","","","","","","","","","","","","","","","","","","","","","",""
"null","fixation","null","fixation","html-keyboard-response","55","359841","0.0-6.0-0.15","28","male","","-1","-1","","","","","","","","","","","","","","","","","","","","","","","","","","","","","","",""
"null","[Dot display: left=300, right=258, diff=42]","null","numerosity","html-keyboard-response","56","360352","0.0-6.0-1.15","28","male","","-1","-1","300","258","42","","","","","","","","","","","","","","","","","","","","","","","","","","","",""
"1988","Confidence judgement (first response)","","confidence_first","html-keyboard-response","57","362342","0.0-6.0-2.15","28","male","","-1","-1","","","","right","52.75","50","52.75","false","46","","","","","","","","","","","","","","","","","","","","","",""
"null","fixation","null","fixation","html-keyboard-response","58","362739","0.0-6.0-0.16","28","male","","-1","-1","","","","","","","","","","","","","","","","","","","","","","","","","","","","","","",""
"null","[Dot display: left=300, right=254, diff=46]","null","numerosity","html-keyboard-response","59","363251","0.0-6.0-1.16","28","male","","-1","-1","300","254","46","","","","","","","","","","","","","","","","","","","","","","","","","","","",""
"1824","Confidence judgement (first response)","","confidence_first","html-keyboard-response","60","365076","0.0-6.0-2.16","28","male","","-1","-1","","","","right","52.75","50","52.75","false","49","","","","","","","","","","","","","","","","","","","","","",""
"null","fixation","null","fixation","html-keyboard-response","61","365326","0.0-6.0-0.17","28","male","","-1","-1","","","","","","","","","","","","","","","","","","","","","","","","","","","","","","",""
"null","[Dot display: left=300, right=251, diff=49]","null","numerosity","html-keyboard-response","62","365836","0.0-6.0-1.17","28","male","","-1","-1","300","251","49","","","","","","","","","","","","","","","","","","","","","","","","","","","",""
"2186","Confidence judgement (first response)","","confidence_first","html-keyboard-response","63","368024","0.0-6.0-2.17","28","male","","-1","-1","","","","right","52.25","50","52.25","false","53","","","","","","","","","","","","","","","","","","","","","",""
"null","fixation","null","fixation","html-keyboard-response","64","368400","0.0-6.0-0.18","28","male","","-1","-1","","","","","","","","","","","","","","","","","","","","","","","","","","","","","","",""
"null","[Dot display: left=300, right=247, diff=53]","null","numerosity","html-keyboard-response","65","368912","0.0-6.0-1.18","28","male","","-1","-1","300","247","53","","","","","","","","","","","","","","","","","","","","","","","","","","","",""
"1761","Confidence judgement (first response)","","confidence_first","html-keyboard-response","66","370675","0.0-6.0-2.18","28","male","","-1","-1","","","","right","51.25","50","51.25","false","57","","","","","","","","","","","","","","","","","","","","","",""
"null","fixation","null","fixation","html-keyboard-response","67","371079","0.0-6.0-0.19","28","male","","-1","-1","","","","","","","","","","","","","","","","","","","","","","","","","","","","","","",""
"null","[Dot display: left=300, right=243, diff=57]","null","numerosity","html-keyboard-response","68","371591","0.0-6.0-1.19","28","male","","-1","-1","300","243","57","","","","","","","","","","","","","","","","","","","","","","","","","","","",""
"1780.9999999999418","Confidence judgement (first response)","","confidence_first","html-keyboard-response","69","373374","0.0-6.0-2.19","28","male","","-1","-1","","","","right","53.5","50","53.5","false","61","","","","","","","","","","","","","","","","","","","","","",""
"null","fixation","null","fixation","html-keyboard-response","70","373625","0.0-6.0-0.20","28","male","","-1","-1","","","","","","","","","","","","","","","","","","","","","","","","","","","","","","",""
"null","[Dot display: left=300, right=239, diff=61]","null","numerosity","html-keyboard-response","71","374136","0.0-6.0-1.20","28","male","","-1","-1","300","239","61","","","","","","","","","","","","","","","","","","","","","","","","","","","",""
"1654","Confidence judgement (first response)","","confidence_first","html-keyboard-response","72","375791","0.0-6.0-2.20","28","male","","-1","-1","","","","right","53","50","53","false","65","","","","","","","","","","","","","","","","","","","","","",""
"null","fixation","null","fixation","html-keyboard-response","73","376027","0.0-6.0-0.21","28","male","","-1","-1","","","","","","","","","","","","","","","","","","","","","","","","","","","","","","",""
"null","[Dot display: left=300, right=235, diff=65]","null","numerosity","html-keyboard-response","74","376536","0.0-6.0-1.21","28","male","","-1","-1","300","235","65","","","","","","","","","","","","","","","","","","","","","","","","","","","",""
"2186","Confidence judgement (first response)","","confidence_first","html-keyboard-response","75","378723","0.0-6.0-2.21","28","male","","-1","-1","","","","right","52.75","50","52.75","false","69","","","","","","","","","","","","","","","","","","","","","",""
"null","fixation","null","fixation","html-keyboard-response","76","379194","0.0-6.0-0.22","28","male","","-1","-1","","","","","","","","","","","","","","","","","","","","","","","","","","","","","","",""
"null","[Dot display: left=300, right=231, diff=69]","null","numerosity","html-keyboard-response","77","379704","0.0-6.0-1.22","28","male","","-1","-1","300","231","69","","","","","","","","","","","","","","","","","","","","","","","","","","","",""
"3026","Confidence judgement (first response)","","confidence_first","html-keyboard-response","78","382732","0.0-6.0-2.22","28","male","","-1","-1","","","","right","53","50","53","false","72","","","","","","","","","","","","","","","","","","","","","",""
"null","fixation","null","fixation","html-keyboard-response","79","382998","0.0-6.0-0.23","28","male","","-1","-1","","","","","","","","","","","","","","","","","","","","","","","","","","","","","","",""
"null","[Dot display: left=300, right=228, diff=72]","null","numerosity","html-keyboard-response","80","383509","0.0-6.0-1.23","28","male","","-1","-1","300","228","72","","","","","","","","","","","","","","","","","","","","","","","","","","","",""
"4601","Confidence judgement (first response)","","confidence_first","html-keyboard-response","81","388112","0.0-6.0-2.23","28","male","","-1","-1","","","","right","54","50","54","false","76","","","","","","","","","","","","","","","","","","","","","",""
"null","fixation","null","fixation","html-keyboard-response","82","388570","0.0-6.0-0.24","28","male","","-1","-1","","","","","","","","","","","","","","","","","","","","","","","","","","","","","","",""
"null","[Dot display: left=224, right=300, diff=76]","null","numerosity","html-keyboard-response","83","389082","0.0-6.0-1.24","28","male","","-1","-1","224","300","76","","","","","","","","","","","","","","","","","","","","","","","","","","","",""
"2346.999999999942","Confidence judgement (first response)","","confidence_first","html-keyboard-response","84","391432","0.0-6.0-2.24","28","male","","-1","-1","","","","right","75.75","50","75.75","true","75","","","","","","","","","","","","","","","","","","","","","",""
"10540","expInstruc","0","expInstructions","html-button-response","85","401974","0.0-7.0-0.0","28","male","","","","","","","","","","","","","","","","","","","","","","","","","","","","","","","","","",""
"12632","expInstruc","0","expInstructions","html-button-response","86","414608","0.0-7.0-0.1","28","male","","","","","","","","","","","","","","","","","","","","","","","","","","","","","","","","","",""
"5765","expInstruc","0","expInstructions","html-button-response","87","420373","0.0-7.0-0.2","28","male","","","","","","","","","","","","","","","","","","","","","","","","","","","","","","","","","",""
"9191","expInstruc","0","expInstructions","html-button-response","88","429565","0.0-7.0-0.3","28","male","","","","","","","","","","","","","","","","","","","","","","","","","","","","","","","","","",""
"4742","expInstruc","0","expInstructions","html-button-response","89","434307","0.0-7.0-0.4","28","male","","","","","","","","","","","","","","","","","","","","","","","","","","","","","","","","","",""
"5683","expInstruc","0","expInstructions","html-button-response","90","439991","0.0-7.0-0.5","28","male","","","","","","","","","","","","","","","","","","","","","","","","","","","","","","","","","",""
"4981","expInstruc","0","expInstructions","html-button-response","91","444973","0.0-7.0-0.6","28","male","","","","","","","","","","","","","","","","","","","","","","","","","","","","","","","","","",""
"6583","expInstruc","0","expInstructions","html-button-response","92","451557","0.0-7.0-0.7","28","male","","","","","","","","","","","","","","","","","","","","","","","","","","","","","","","","","",""
"7916","expInstruc","0","expInstructions","html-button-response","93","459473","0.0-7.0-0.8","28","male","","","","","","","","","","","","","","","","","","","","","","","","","","","","","","","","","",""
"3117","expInstruc","0","expInstructions","html-button-response","94","462592","0.0-7.0-0.9","28","male","","","","","","","","","","","","","","","","","","","","","","","","","","","","","","","","","",""
"7048","expInstruc","0","expInstructions","html-button-response","95","469640","0.0-7.0-0.10","28","male","","","","","","","","","","","","","","","","","","","","","","","","","","","","","","","","","",""
"1066","expInstruc","0","expInstructions","html-button-response","96","470708","0.0-7.0-0.11","28","male","","","","","","","","","","","","","","","","","","","","","","","","","","","","","","","","","",""
"7655","block message","0","block_message","html-button-response","97","478364","0.0-8.0","28","male","","","","","","","","","","","","","1","","","","","","","","","","","","","","","","","","","","",""
"null","fixation","null","fixation","html-keyboard-response","98","478843","0.0-9.0-0.0","28","male","","-1","-1","","","","","","","","","","","","","","","","","","","","","","","","","","","","","","",""
"null","[Dot display: left=300, right=225, diff=75]","null","numerosity","html-keyboard-response","99","479355","0.0-9.0-1.0","28","male","","-1","-1","300","225","75","","","","","","","","","","","","","","","","","","","","","","","","","","","",""
"2201","Confidence judgement (first response)","","confidence_first","html-keyboard-response","100","481559","0.0-9.0-2.0","28","male","","-1","-1","","","","right","62","50","62","false","78","","","","","","","","","","","","","","","","","","","","","",""
"1477","forcedAdvice","0","forced_advice_display","html-button-response","101","483038","0.0-9.0-4.0-0.0","28","male","","-1","-1","","","","","","","","","","","","","","","","","","","","","","","","","","","","","","",""
"null","[advice: left]","null","show_advice","html-keyboard-response","102","483840","0.0-9.0-4.0-1.0","28","male","","-1","-1","","","","","","","","","","","left","","","","","","","","","","","","","","","","","","","",""
"13651","Confidence judgment (second response)","","confidence_second","html-keyboard-response","103","497495","0.0-9.0-6.0","28","male","","-1","-1","","","","left","50.2265625","50.2265625","50","true","78","","","","","","","","","","","","","","","","","","","","","",""
"null","consolidated-trial-data","null","consolidated-trial-data","consolidated-trial-data","104","497497","0.0-10.0","28","male","","","","","","","","","","","","","","","0","0","0","300","225","75","right","62","2","nan","left","left","50.2265625","true","","","","","",""
"8625","attncheck","1","attncheck","html-button-response","105","506122","0.0-11.0","28","male","","","","","","","","","","","","","","","","","","","","","","","","","","","","","true","Continue","","","",""
"null","fixation","null","fixation","html-keyboard-response","106","506546","0.0-12.0-0.0","28","male","","-1","-1","","","","","","","","","","","","","","","","","","","","","","","","","","","","","","",""
"null","[Dot display: left=222, right=300, diff=78]","null","numerosity","html-keyboard-response","107","507055","0.0-12.0-1.0","28","male","","-1","-1","222","300","78","","","","","","","","","","","","","","","","","","","","","","","","","","","",""
"2216","Confidence judgement (first response)","","confidence_first","html-keyboard-response","108","509272","0.0-12.0-2.0","28","male","","-1","-1","","","","right","65.25","50","65.25","true","77","","","","","","","","","","","","","","","","","","","","","",""
"2098","[advice choice Y,N]","0","advice_choice","html-button-response","109","511371","0.0-12.0-3.0-0.0","28","male","","-1","-1","","","","","","","","","","","","","","","","","","","","","","","","","","","","","","",""
"null","[advice: right]","null","show_advice","html-keyboard-response","110","512174","0.0-12.0-3.0-1.0-0.0","28","male","","-1","-1","","","","","","","","","","","right","","","","","","","","","","","","","","","","","","","",""
"3496.0000000001164","Confidence judgment (second response)","","confidence_second","html-keyboard-response","111","515672","0.0-12.0-6.0","28","male","","-1","-1","","","","right","92.5234375","50","92.5234375","true","76","","","","","","","","","","","","","","","","","","","","","",""
"null","consolidated-trial-data","null","consolidated-trial-data","consolidated-trial-data","112","515673","0.0-13.0","28","male","","","","","","","","","","","","","","","0","1","1","222","300","78","right","65.25","1","yes","right","right","92.5234375","true","","","","","",""
"null","fixation","null","fixation","html-keyboard-response","113","515879","0.0-14.0-0.0","28","male","","-1","-1","","","","","","","","","","","","","","","","","","","","","","","","","","","","","","",""
"null","[Dot display: left=224, right=300, diff=76]","null","numerosity","html-keyboard-response","114","516391","0.0-14.0-1.0","28","male","","-1","-1","224","300","76","","","","","","","","","","","","","","","","","","","","","","","","","","","",""
"2131","Confidence judgement (first response)","","confidence_first","html-keyboard-response","115","518524","0.0-14.0-2.0","28","male","","-1","-1","","","","right","67","50","67","true","76","","","","","","","","","","","","","","","","","","","","","",""
"1330","forcedAdvice","0","forced_advice_display","html-button-response","116","519855","0.0-14.0-4.0-0.0","28","male","","-1","-1","","","","","","","","","","","","","","","","","","","","","","","","","","","","","","",""
"null","[advice: right]","null","show_advice","html-keyboard-response","117","520657","0.0-14.0-4.0-1.0","28","male","","-1","-1","","","","","","","","","","","right","","","","","","","","","","","","","","","","","","","",""
"2630","Confidence judgment (second response)","","confidence_second","html-keyboard-response","118","523290","0.0-14.0-6.0","28","male","","-1","-1","","","","right","97.7734375","50","97.7734375","true","75","","","","","","","","","","","","","","","","","","","","","",""
"null","consolidated-trial-data","null","consolidated-trial-data","consolidated-trial-data","119","523291","0.0-15.0","28","male","","","","","","","","","","","","","","","0","2","2","224","300","76","right","67","2","yes","right","right","97.7734375","true","","","","","",""
"null","fixation","null","fixation","html-keyboard-response","120","523770","0.0-16.0-0.0","28","male","","-1","-1","","","","","","","","","","","","","","","","","","","","","","","","","","","","","","",""
"null","[Dot display: left=225, right=300, diff=75]","null","numerosity","html-keyboard-response","121","524282","0.0-16.0-1.0","28","male","","-1","-1","225","300","75","","","","","","","","","","","","","","","","","","","","","","","","","","","",""
"2705","Confidence judgement (first response)","","confidence_first","html-keyboard-response","122","526989","0.0-16.0-2.0","28","male","","-1","-1","","","","right","64.75","50","64.75","true","74","","","","","","","","","","","","","","","","","","","","","",""
"1031","noAdvice","0","no_advice_display","html-button-response","123","528022","0.0-16.0-5.0-0.0","28","male","","-1","-1","","","","","","","","","","","","","","","","","","","","","","","","","","","","","","",""
"null","blank","null","blank_screen","html-keyboard-response","124","528824","0.0-16.0-5.0-1.0","28","male","","-1","-1","","","","","","","","","","","","","","","","","","","","","","","","","","","","","","",""
"1829","Confidence judgment (second response)","","confidence_second","html-keyboard-response","125","530655","0.0-16.0-6.0","28","male","","-1","-1","","","","right","64.75","50","64.75","true","74","","","","","","","","","","","","","","","","","","","","","",""
"null","consolidated-trial-data","null","consolidated-trial-data","consolidated-trial-data","126","530656","0.0-17.0","28","male","","","","","","","","","","","","","","","0","3","3","225","300","75","right","64.75","3","yes","right","right","64.75","true","","","","","",""
"2699","block message","0","block_message","html-button-response","127","533355","0.0-18.0","28","male","","","","","","","","","","","","","1","","","","","","","","","","","","","","","","","","","","",""
"null","fixation","null","fixation","html-keyboard-response","128","533810","0.0-19.0-0.0","28","male","","-1","-1","","","","","","","","","","","","","","","","","","","","","","","","","","","","","","",""
"null","[Dot display: left=300, right=226, diff=74]","null","numerosity","html-keyboard-response","129","534318","0.0-19.0-1.0","28","male","","-1","-1","300","226","74","","","","","","","","","","","","","","","","","","","","","","","","","","","",""
"2519.0000000001164","Confidence judgement (first response)","","confidence_first","html-keyboard-response","130","536838","0.0-19.0-2.0","28","male","","-1","-1","","","","left","51.75","51.75","50","true","73","","","","","","","","","","","","","","","","","","","","","",""
"1132","forcedAdvice","0","forced_advice_display","html-button-response","131","537972","0.0-19.0-4.0-0.0","28","male","","-1","-1","","","","","","","","","","","","","","","","","","","","","","","","","","","","","","",""
"null","[advice: left]","null","show_advice","html-keyboard-response","132","538773","0.0-19.0-4.0-1.0","28","male","","-1","-1","","","","","","","","","","","left","","","","","","","","","","","","","","","","","","","",""
"1789.0000000001164","Confidence judgment (second response)","","confidence_second","html-keyboard-response","133","540565","0.0-19.0-6.0","28","male","","-1","-1","","","","left","52.7265625","52.7265625","50","true","73","","","","","","","","","","","","","","","","","","","","","",""
"null","consolidated-trial-data","null","consolidated-trial-data","consolidated-trial-data","134","540566","0.0-20.0","28","male","","","","","","","","","","","","","","","0","4","4","300","226","74","left","51.75","2","yes","left","left","52.7265625","true","","","","","",""
"null","fixation","null","fixation","html-keyboard-response","135","540868","0.0-21.0-0.0","28","male","","-1","-1","","","","","","","","","","","","","","","","","","","","","","","","","","","","","","",""
"null","[Dot display: left=227, right=300, diff=73]","null","numerosity","html-keyboard-response","136","541380","0.0-21.0-1.0","28","male","","-1","-1","227","300","73","","","","","","","","","","","","","","","","","","","","","","","","","","","",""
"2749","Confidence judgement (first response)","","confidence_first","html-keyboard-response","137","544130","0.0-21.0-2.0","28","male","","-1","-1","","","","right","71.5","50","71.5","true","72","","","","","","","","","","","","","","","","","","","","","",""
"1231","noAdvice","0","no_advice_display","html-button-response","138","545362","0.0-21.0-5.0-0.0","28","male","","-1","-1","","","","","","","","","","","","","","","","","","","","","","","","","","","","","","",""
"null","blank","null","blank_screen","html-keyboard-response","139","546164","0.0-21.0-5.0-1.0","28","male","","-1","-1","","","","","","","","","","","","","","","","","","","","","","","","","","","","","","",""
"1405","Confidence judgment (second response)","","confidence_second","html-keyboard-response","140","547571","0.0-21.0-6.0","28","male","","-1","-1","","","","right","71.5","50","71.5","true","71","","","","","","","","","","","","","","","","","","","","","",""
"null","consolidated-trial-data","null","consolidated-trial-data","consolidated-trial-data","141","547573","0.0-22.0","28","male","","","","","","","","","","","","","","","0","5","5","227","300","73","right","71.5","3","yes","left","right","71.5","false","","","","","",""
"null","fixation","null","fixation","html-keyboard-response","142","547919","0.0-23.0-0.0","28","male","","-1","-1","","","","","","","","","","","","","","","","","","","","","","","","","","","","","","",""
"null","[Dot display: left=229, right=300, diff=71]","null","numerosity","html-keyboard-response","143","548431","0.0-23.0-1.0","28","male","","-1","-1","229","300","71","","","","","","","","","","","","","","","","","","","","","","","","","","","",""
"206427","Confidence judgement (first response)","","confidence_first","html-keyboard-response","144","754851","0.0-23.0-2.0","28","male","","-1","-1","","","","left","50.25","50.25","50","false","74","","","","","","","","","","","","","","","","","","","","","",""
"1739","[advice choice Y,N]","0","advice_choice","html-button-response","145","756594","0.0-23.0-3.0-0.0","28","male","","-1","-1","","","","","","","","","","","","","","","","","","","","","","","","","","","","","","",""
"null","[advice: right]","null","show_advice","html-keyboard-response","146","757398","0.0-23.0-3.0-1.0-0.0","28","male","","-1","-1","","","","","","","","","","","right","","","","","","","","","","","","","","","","","","","",""
"2750","Confidence judgment (second response)","","confidence_second","html-keyboard-response","147","760153","0.0-23.0-6.0","28","male","","-1","-1","","","","right","57.7734375","50","57.7734375","true","73","","","","","","","","","","","","","","","","","","","","","",""
"null","consolidated-trial-data","null","consolidated-trial-data","consolidated-trial-data","148","760154","0.0-24.0","28","male","","","","","","","","","","","","","","","0","6","6","229","300","71","left","50.25","1","yes","right","right","57.7734375","true","","","","","",""
"null","fixation","null","fixation","html-keyboard-response","149","760645","0.0-25.0-0.0","28","male","","-1","-1","","","","","","","","","","","","","","","","","","","","","","","","","","","","","","",""
"null","[Dot display: left=227, right=300, diff=73]","null","numerosity","html-keyboard-response","150","761156","0.0-25.0-1.0","28","male","","-1","-1","227","300","73","","","","","","","","","","","","","","","","","","","","","","","","","","","",""
"4094.0000000001164","Confidence judgement (first response)","","confidence_first","html-keyboard-response","151","765253","0.0-25.0-2.0","28","male","","-1","-1","","","","left","58.75","58.75","50","false","75","","","","","","","","","","","","","","","","","","","","","",""
"1148","[advice choice Y,N]","0","advice_choice","html-button-response","152","766403","0.0-25.0-3.0-0.0","28","male","","-1","-1","","","","","","","","","","","","","","","","","","","","","","","","","","","","","","",""
"null","[advice: right]","null","show_advice","html-keyboard-response","153","767206","0.0-25.0-3.0-1.0-0.0","28","male","","-1","-1","","","","","","","","","","","right","","","","","","","","","","","","","","","","","","","",""
"1377","Confidence judgment (second response)","","confidence_second","html-keyboard-response","154","768588","0.0-25.0-6.0","28","male","","-1","-1","","","","right","64.7734375","50","64.7734375","true","75","","","","","","","","","","","","","","","","","","","","","",""
"null","consolidated-trial-data","null","consolidated-trial-data","consolidated-trial-data","155","768590","0.0-26.0","28","male","","","","","","","","","","","","","","","0","7","7","227","300","73","left","58.75","1","yes","right","right","64.7734375","true","","","","","",""
"null","fixation","null","fixation","html-keyboard-response","156","768841","0.0-27.0-0.0","28","male","","-1","-1","","","","","","","","","","","","","","","","","","","","","","","","","","","","","","",""
"null","[Dot display: left=225, right=300, diff=75]","null","numerosity","html-keyboard-response","157","769351","0.0-27.0-1.0","28","male","","-1","-1","225","300","75","","","","","","","","","","","","","","","","","","","","","","","","","","","",""
"2366.0000000001164","Confidence judgement (first response)","","confidence_first","html-keyboard-response","158","771719","0.0-27.0-2.0","28","male","","-1","-1","","","","right","77.75","50","77.75","true","74","","","","","","","","","","","","","","","","","","","","","",""
"1015","[advice choice Y,N]","0","advice_choice","html-button-response","159","772735","0.0-27.0-3.0-0.0","28","male","","-1","-1","","","","","","","","","","","","","","","","","","","","","","","","","","","","","","",""
"null","[advice: right]","null","show_advice","html-keyboard-response","160","773537","0.0-27.0-3.0-1.0-0.0","28","male","","-1","-1","","","","","","","","","","","right","","","","","","","","","","","","","","","","","","","",""
"1197","Confidence judgment (second response)","","confidence_second","html-keyboard-response","161","774736","0.0-27.0-6.0","28","male","","-1","-1","","","","right","97.7734375","50","97.7734375","true","74","","","","","","","","","","","","","","","","","","","","","",""
"null","consolidated-trial-data","null","consolidated-trial-data","consolidated-trial-data","162","774738","0.0-28.0","28","male","","","","","","","","","","","","","","","0","8","8","225","300","75","right","77.75","1","yes","right","right","97.7734375","true","","","","","",""
"1697","block message","0","block_message","html-button-response","163","776436","0.0-29.0","28","male","","","","","","","","","","","","","1","","","","","","","","","","","","","","","","","","","","",""
"null","fixation","null","fixation","html-keyboard-response","164","776922","0.0-30.0-0.0","28","male","","-1","-1","","","","","","","","","","","","","","","","","","","","","","","","","","","","","","",""
"null","[Dot display: left=226, right=300, diff=74]","null","numerosity","html-keyboard-response","165","777433","0.0-30.0-1.0","28","male","","-1","-1","226","300","74","","","","","","","","","","","","","","","","","","","","","","","","","","","",""
"1935","Confidence judgement (first response)","","confidence_first","html-keyboard-response","166","779370","0.0-30.0-2.0","28","male","","-1","-1","","","","right","56.5","50","56.5","true","73","","","","","","","","","","","","","","","","","","","","","",""
"1036","noAdvice","0","no_advice_display","html-button-response","167","780407","0.0-30.0-5.0-0.0","28","male","","-1","-1","","","","","","","","","","","","","","","","","","","","","","","","","","","","","","",""
"null","blank","null","blank_screen","html-keyboard-response","168","781210","0.0-30.0-5.0-1.0","28","male","","-1","-1","","","","","","","","","","","","","","","","","","","","","","","","","","","","","","",""
"3323","Confidence judgment (second response)","","confidence_second","html-keyboard-response","169","784537","0.0-30.0-6.0","28","male","","-1","-1","","","","right","58.5234375","50","58.5234375","true","73","","","","","","","","","","","","","","","","","","","","","",""
"null","consolidated-trial-data","null","consolidated-trial-data","consolidated-trial-data","170","784538","0.0-31.0","28","male","","","","","","","","","","","","","","","0","9","9","226","300","74","right","56.5","3","yes","right","right","58.5234375","true","","","","","",""
"null","fixation","null","fixation","html-keyboard-response","171","784768","0.0-32.0-0.0","28","male","","-1","-1","","","","","","","","","","","","","","","","","","","","","","","","","","","","","","",""
"null","[Dot display: left=300, right=227, diff=73]","null","numerosity","html-keyboard-response","172","785279","0.0-32.0-1.0","28","male","","-1","-1","300","227","73","","","","","","","","","","","","","","","","","","","","","","","","","","","",""
"2224","Confidence judgement (first response)","","confidence_first","html-keyboard-response","173","787505","0.0-32.0-2.0","28","male","","-1","-1","","","","left","56.75","56.75","50","true","72","","","","","","","","","","","","","","","","","","","","","",""
"1045","[advice choice Y,N]","0","advice_choice","html-button-response","174","788552","0.0-32.0-3.0-0.0","28","male","","-1","-1","","","","","","","","","","","","","","","","","","","","","","","","","","","","","","",""
"null","[advice: left]","null","show_advice","html-keyboard-response","175","789353","0.0-32.0-3.0-1.0-0.0","28","male","","-1","-1","","","","","","","","","","","left","","","","","","","","","","","","","","","","","","","",""
"1446","Confidence judgment (second response)","","confidence_second","html-keyboard-response","176","790802","0.0-32.0-6.0","28","male","","-1","-1","","","","left","62.4765625","62.4765625","50","true","72","","","","","","","","","","","","","","","","","","","","","",""
"null","consolidated-trial-data","null","consolidated-trial-data","consolidated-trial-data","177","790802","0.0-33.0","28","male","","","","","","","","","","","","","","","0","10","10","300","227","73","left","56.75","1","yes","left","left","62.4765625","true","","","","","",""
"null","fixation","null","fixation","html-keyboard-response","178","791103","0.0-34.0-0.0","28","male","","-1","-1","","","","","","","","","","","","","","","","","","","","","","","","","","","","","","",""
"null","[Dot display: left=300, right=228, diff=72]","null","numerosity","html-keyboard-response","179","791613","0.0-34.0-1.0","28","male","","-1","-1","300","228","72","","","","","","","","","","","","","","","","","","","","","","","","","","","",""
"4657","Confidence judgement (first response)","","confidence_first","html-keyboard-response","180","796272","0.0-34.0-2.0","28","male","","-1","-1","","","","left","50.25","50.25","50","true","72","","","","","","","","","","","","","","","","","","","","","",""
"1067","forcedAdvice","0","forced_advice_display","html-button-response","181","797340","0.0-34.0-4.0-0.0","28","male","","-1","-1","","","","","","","","","","","","","","","","","","","","","","","","","","","","","","",""
"null","[advice: left]","null","show_advice","html-keyboard-response","182","798143","0.0-34.0-4.0-1.0","28","male","","-1","-1","","","","","","","","","","","left","","","","","","","","","","","","","","","","","","","",""
"1640.9999999998836","Confidence judgment (second response)","","confidence_second","html-keyboard-response","183","799786","0.0-34.0-6.0","28","male","","-1","-1","","","","left","51.4765625","51.4765625","50","true","71","","","","","","","","","","","","","","","","","","","","","",""
"null","consolidated-trial-data","null","consolidated-trial-data","consolidated-trial-data","184","799788","0.0-35.0","28","male","","","","","","","","","","","","","","","0","11","11","300","228","72","left","50.25","2","yes","left","left","51.4765625","true","","","","","",""
"null","fixation","null","fixation","html-keyboard-response","185","800259","0.0-36.0-0.0","28","male","","-1","-1","","","","","","","","","","","","","","","","","","","","","","","","","","","","","","",""
"null","[Dot display: left=300, right=229, diff=71]","null","numerosity","html-keyboard-response","186","800771","0.0-36.0-1.0","28","male","","-1","-1","300","229","71","","","","","","","","","","","","","","","","","","","","","","","","","","","",""
"1829.0000000001164","Confidence judgement (first response)","","confidence_first","html-keyboard-response","187","802602","0.0-36.0-2.0","28","male","","-1","-1","","","","left","59","59","50","true","71","","","","","","","","","","","","","","","","","","","","","",""
"1050","noAdvice","0","no_advice_display","html-button-response","188","803652","0.0-36.0-5.0-0.0","28","male","","-1","-1","","","","","","","","","","","","","","","","","","","","","","","","","","","","","","",""
"null","blank","null","blank_screen","html-keyboard-response","189","804454","0.0-36.0-5.0-1.0","28","male","","-1","-1","","","","","","","","","","","","","","","","","","","","","","","","","","","","","","",""
"2678","Confidence judgment (second response)","","confidence_second","html-keyboard-response","190","807135","0.0-36.0-6.0","28","male","","-1","-1","","","","left","57.7265625","57.7265625","50","true","70","","","","","","","","","","","","","","","","","","","","","",""
"null","consolidated-trial-data","null","consolidated-trial-data","consolidated-trial-data","191","807135","0.0-37.0","28","male","","","","","","","","","","","","","","","0","12","12","300","229","71","left","59","3","yes","left","left","57.7265625","true","","","","","",""
"null","fixation","null","fixation","html-keyboard-response","192","807546","0.0-38.0-0.0","28","male","","-1","-1","","","","","","","","","","","","","","","","","","","","","","","","","","","","","","",""
"null","[Dot display: left=300, right=230, diff=70]","null","numerosity","html-keyboard-response","193","808056","0.0-38.0-1.0","28","male","","-1","-1","300","230","70","","","","","","","","","","","","","","","","","","","","","","","","","","","",""
"1778","Confidence judgement (first response)","","confidence_first","html-keyboard-response","194","809836","0.0-38.0-2.0","28","male","","-1","-1","","","","right","59.25","50","59.25","false","72","","","","","","","","","","","","","","","","","","","","","",""
"1200","forcedAdvice","0","forced_advice_display","html-button-response","195","811036","0.0-38.0-4.0-0.0","28","male","","-1","-1","","","","","","","","","","","","","","","","","","","","","","","","","","","","","","",""
"null","[advice: left]","null","show_advice","html-keyboard-response","196","811838","0.0-38.0-4.0-1.0","28","male","","-1","-1","","","","","","","","","","","left","","","","","","","","","","","","","","","","","","","",""
"1698.9999999998836","Confidence judgment (second response)","","confidence_second","html-keyboard-response","197","813540","0.0-38.0-6.0","28","male","","-1","-1","","","","right","59.5234375","50","59.5234375","false","74","","","","","","","","","","","","","","","","","","","","","",""
"null","consolidated-trial-data","null","consolidated-trial-data","consolidated-trial-data","198","813542","0.0-39.0","28","male","","","","","","","","","","","","","","","0","13","13","300","230","70","right","59.25","2","yes","left","right","59.5234375","true","","","","","",""
"null","fixation","null","fixation","html-keyboard-response","199","813906","0.0-40.0-0.0","28","male","","-1","-1","","","","","","","","","","","","","","","","","","","","","","","","","","","","","","",""
"null","[Dot display: left=300, right=226, diff=74]","null","numerosity","html-keyboard-response","200","814416","0.0-40.0-1.0","28","male","","-1","-1","300","226","74","","","","","","","","","","","","","","","","","","","","","","","","","","","",""
"1717.9999999998836","Confidence judgement (first response)","","confidence_first","html-keyboard-response","201","816136","0.0-40.0-2.0","28","male","","-1","-1","","","","left","68","68","50","true","73","","","","","","","","","","","","","","","","","","","","","",""
"1091","noAdvice","0","no_advice_display","html-button-response","202","817228","0.0-40.0-5.0-0.0","28","male","","-1","-1","","","","","","","","","","","","","","","","","","","","","","","","","","","","","","",""
"null","blank","null","blank_screen","html-keyboard-response","203","818030","0.0-40.0-5.0-1.0","28","male","","-1","-1","","","","","","","","","","","","","","","","","","","","","","","","","","","","","","",""
"1823","Confidence judgment (second response)","","confidence_second","html-keyboard-response","204","819856","0.0-40.0-6.0","28","male","","-1","-1","","","","left","65.9765625","65.9765625","50","true","73","","","","","","","","","","","","","","","","","","","","","",""
"null","consolidated-trial-data","null","consolidated-trial-data","consolidated-trial-data","205","819858","0.0-41.0","28","male","","","","","","","","","","","","","","","0","14","14","300","226","74","left","68","3","yes","left","left","65.9765625","true","","","","","",""
"1262","block message","0","block_message","html-button-response","206","821122","0.0-42.0","28","male","","","","","","","","","","","","","2","","","","","","","","","","","","","","","","","","","","",""
"3164","attncheck","0","attncheck","html-button-response","207","824286","0.0-43.0","28","male","","","","","","","","","","","","","","","","","","","","","","","","","","","","","true","Stop","","","",""
"null","fixation","null","fixation","html-keyboard-response","208","824650","0.0-44.0-0.0","28","male","","-1","-1","","","","","","","","","","","","","","","","","","","","","","","","","","","","","","",""
"null","[Dot display: left=227, right=300, diff=73]","null","numerosity","html-keyboard-response","209","825160","0.0-44.0-1.0","28","male","","-1","-1","227","300","73","","","","","","","","","","","","","","","","","","","","","","","","","","","",""
"1538","Confidence judgement (first response)","","confidence_first","html-keyboard-response","210","826700","0.0-44.0-2.0","28","male","","-1","-1","","","","right","71.5","50","71.5","true","72","","","","","","","","","","","","","","","","","","","","","",""
"1017","forcedAdvice","0","forced_advice_display","html-button-response","211","827718","0.0-44.0-4.0-0.0","28","male","","-1","-1","","","","","","","","","","","","","","","","","","","","","","","","","","","","","","",""
"null","[advice: right]","null","show_advice","html-keyboard-response","212","828520","0.0-44.0-4.0-1.0","28","male","","-1","-1","","","","","","","","","","","right","","","","","","","","","","","","","","","","","","","",""
"2579","Confidence judgment (second response)","","confidence_second","html-keyboard-response","213","831102","0.0-44.0-6.0","28","male","","-1","-1","","","","right","83.2734375","50","83.2734375","true","72","","","","","","","","","","","","","","","","","","","","","",""
"null","consolidated-trial-data","null","consolidated-trial-data","consolidated-trial-data","214","831104","0.0-45.0","28","male","","","","","","","","","","","","","","","1","0","15","227","300","73","right","71.5","2","yes","right","right","83.2734375","true","","","","","",""
"null","fixation","null","fixation","html-keyboard-response","215","831467","0.0-46.0-0.0","28","male","","-1","-1","","","","","","","","","","","","","","","","","","","","","","","","","","","","","","",""
"null","[Dot display: left=300, right=228, diff=72]","null","numerosity","html-keyboard-response","216","831978","0.0-46.0-1.0","28","male","","-1","-1","300","228","72","","","","","","","","","","","","","","","","","","","","","","","","","","","",""
"2106.0000000001164","Confidence judgement (first response)","","confidence_first","html-keyboard-response","217","834085","0.0-46.0-2.0","28","male","","-1","-1","","","","left","59.25","59.25","50","true","72","","","","","","","","","","","","","","","","","","","","","",""
"1358","[advice choice Y,N]","0","advice_choice","html-button-response","218","835445","0.0-46.0-3.0-0.0","28","male","","-1","-1","","","","","","","","","","","","","","","","","","","","","","","","","","","","","","",""
"null","[advice: left]","null","show_advice","html-keyboard-response","219","836247","0.0-46.0-3.0-1.0-0.0","28","male","","-1","-1","","","","","","","","","","","left","","","","","","","","","","","","","","","","","","","",""
"1330","Confidence judgment (second response)","","confidence_second","html-keyboard-response","220","837580","0.0-46.0-6.0","28","male","","-1","-1","","","","left","59.4765625","59.4765625","50","true","71","","","","","","","","","","","","","","","","","","","","","",""
"null","consolidated-trial-data","null","consolidated-trial-data","consolidated-trial-data","221","837581","0.0-47.0","28","male","","","","","","","","","","","","","","","1","1","16","300","228","72","left","59.25","1","yes","left","left","59.4765625","true","","","","","",""
"null","fixation","null","fixation","html-keyboard-response","222","837993","0.0-48.0-0.0","28","male","","-1","-1","","","","","","","","","","","","","","","","","","","","","","","","","","","","","","",""
"null","[Dot display: left=229, right=300, diff=71]","null","numerosity","html-keyboard-response","223","838503","0.0-48.0-1.0","28","male","","-1","-1","229","300","71","","","","","","","","","","","","","","","","","","","","","","","","","","","",""
"1614.0000000001164","Confidence judgement (first response)","","confidence_first","html-keyboard-response","224","840118","0.0-48.0-2.0","28","male","","-1","-1","","","","right","67","50","67","true","71","","","","","","","","","","","","","","","","","","","","","",""
"1134","forcedAdvice","0","forced_advice_display","html-button-response","225","841254","0.0-48.0-4.0-0.0","28","male","","-1","-1","","","","","","","","","","","","","","","","","","","","","","","","","","","","","","",""
"null","[advice: right]","null","show_advice","html-keyboard-response","226","842055","0.0-48.0-4.0-1.0","28","male","","-1","-1","","","","","","","","","","","right","","","","","","","","","","","","","","","","","","","",""
"1398","Confidence judgment (second response)","","confidence_second","html-keyboard-response","227","843455","0.0-48.0-6.0","28","male","","-1","-1","","","","right","68.2734375","50","68.2734375","true","71","","","","","","","","","","","","","","","","","","","","","",""
"null","consolidated-trial-data","null","consolidated-trial-data","consolidated-trial-data","228","843457","0.0-49.0","28","male","","","","","","","","","","","","","","","1","2","17","229","300","71","right","67","2","yes","right","right","68.2734375","true","","","","","",""
"null","fixation","null","fixation","html-keyboard-response","229","843719","0.0-50.0-0.0","28","male","","-1","-1","","","","","","","","","","","","","","","","","","","","","","","","","","","","","","",""
"null","[Dot display: left=300, right=229, diff=71]","null","numerosity","html-keyboard-response","230","844230","0.0-50.0-1.0","28","male","","-1","-1","300","229","71","","","","","","","","","","","","","","","","","","","","","","","","","","","",""
"1637.0000000001164","Confidence judgement (first response)","","confidence_first","html-keyboard-response","231","845868","0.0-50.0-2.0","28","male","","-1","-1","","","","left","69.25","69.25","50","true","70","","","","","","","","","","","","","","","","","","","","","",""
"1067","noAdvice","0","no_advice_display","html-button-response","232","846936","0.0-50.0-5.0-0.0","28","male","","-1","-1","","","","","","","","","","","","","","","","","","","","","","","","","","","","","","",""
"null","blank","null","blank_screen","html-keyboard-response","233","847738","0.0-50.0-5.0-1.0","28","male","","-1","-1","","","","","","","","","","","","","","","","","","","","","","","","","","","","","","",""
"2114","Confidence judgment (second response)","","confidence_second","html-keyboard-response","234","849854","0.0-50.0-6.0","28","male","","-1","-1","","","","left","66.4765625","66.4765625","50","true","70","","","","","","","","","","","","","","","","","","","","","",""
"null","consolidated-trial-data","null","consolidated-trial-data","consolidated-trial-data","235","849856","0.0-51.0","28","male","","","","","","","","","","","","","","","1","3","18","300","229","71","left","69.25","3","yes","right","left","66.4765625","false","","","","","",""
"2127","block message","0","block_message","html-button-response","236","851985","0.0-52.0","28","male","","","","","","","","","","","","","2","","","","","","","","","","","","","","","","","","","","",""
"null","fixation","null","fixation","html-keyboard-response","237","852393","0.0-53.0-0.0","28","male","","-1","-1","","","","","","","","","","","","","","","","","","","","","","","","","","","","","","",""
"null","[Dot display: left=300, right=230, diff=70]","null","numerosity","html-keyboard-response","238","852902","0.0-53.0-1.0","28","male","","-1","-1","300","230","70","","","","","","","","","","","","","","","","","","","","","","","","","","","",""
"1650","Confidence judgement (first response)","","confidence_first","html-keyboard-response","239","854553","0.0-53.0-2.0","28","male","","-1","-1","","","","left","63.5","63.5","50","true","70","","","","","","","","","","","","","","","","","","","","","",""
"981","forcedAdvice","0","forced_advice_display","html-button-response","240","855534","0.0-53.0-4.0-0.0","28","male","","-1","-1","","","","","","","","","","","","","","","","","","","","","","","","","","","","","","",""
"null","[advice: left]","null","show_advice","html-keyboard-response","241","856336","0.0-53.0-4.0-1.0","28","male","","-1","-1","","","","","","","","","","","left","","","","","","","","","","","","","","","","","","","",""
"1932","Confidence judgment (second response)","","confidence_second","html-keyboard-response","242","858270","0.0-53.0-6.0","28","male","","-1","-1","","","","left","63.4765625","63.4765625","50","true","69","","","","","","","","","","","","","","","","","","","","","",""
"null","consolidated-trial-data","null","consolidated-trial-data","consolidated-trial-data","243","858271","0.0-54.0","28","male","","","","","","","","","","","","","","","1","4","19","300","230","70","left","63.5","2","yes","left","left","63.4765625","true","","","","","",""
"1581","attncheck","1","attncheck","html-button-response","244","859853","0.0-55.0","28","male","","","","","","","","","","","","","","","","","","","","","","","","","","","","","true","Continue","","","",""
"null","fixation","null","fixation","html-keyboard-response","245","860253","0.0-56.0-0.0","28","male","","-1","-1","","","","","","","","","","","","","","","","","","","","","","","","","","","","","","",""
"null","[Dot display: left=300, right=231, diff=69]","null","numerosity","html-keyboard-response","246","860761","0.0-56.0-1.0","28","male","","-1","-1","300","231","69","","","","","","","","","","","","","","","","","","","","","","","","","","","",""
"1773.0000000001164","Confidence judgement (first response)","","confidence_first","html-keyboard-response","247","862535","0.0-56.0-2.0","28","male","","-1","-1","","","","left","79.25","79.25","50","true","69","","","","","","","","","","","","","","","","","","","","","",""
"1349","noAdvice","0","no_advice_display","html-button-response","248","863884","0.0-56.0-5.0-0.0","28","male","","-1","-1","","","","","","","","","","","","","","","","","","","","","","","","","","","","","","",""
"null","blank","null","blank_screen","html-keyboard-response","249","864686","0.0-56.0-5.0-1.0","28","male","","-1","-1","","","","","","","","","","","","","","","","","","","","","","","","","","","","","","",""
"1262.9999999998836","Confidence judgment (second response)","","confidence_second","html-keyboard-response","250","865952","0.0-56.0-6.0","28","male","","-1","-1","","","","left","69.9765625","69.9765625","50","true","69","","","","","","","","","","","","","","","","","","","","","",""
"null","consolidated-trial-data","null","consolidated-trial-data","consolidated-trial-data","251","865953","0.0-57.0","28","male","","","","","","","","","","","","","","","1","5","20","300","231","69","left","79.25","3","yes","left","left","69.9765625","true","","","","","",""
"null","fixation","null","fixation","html-keyboard-response","252","866253","0.0-58.0-0.0","28","male","","-1","-1","","","","","","","","","","","","","","","","","","","","","","","","","","","","","","",""
"null","[Dot display: left=231, right=300, diff=69]","null","numerosity","html-keyboard-response","253","866765","0.0-58.0-1.0","28","male","","-1","-1","231","300","69","","","","","","","","","","","","","","","","","","","","","","","","","","","",""
"1519","Confidence judgement (first response)","","confidence_first","html-keyboard-response","254","868286","0.0-58.0-2.0","28","male","","-1","-1","","","","right","88","50","88","true","68","","","","","","","","","","","","","","","","","","","","","",""
"1430","[advice choice Y,N]","0","advice_choice","html-button-response","255","869717","0.0-58.0-3.0-0.0","28","male","","-1","-1","","","","","","","","","","","","","","","","","","","","","","","","","","","","","","",""
"null","[advice: right]","null","show_advice","html-keyboard-response","256","870519","0.0-58.0-3.0-1.0-0.0","28","male","","-1","-1","","","","","","","","","","","right","","","","","","","","","","","","","","","","","","","",""
"10814.999999999884","Confidence judgment (second response)","","confidence_second","html-keyboard-response","257","881335","0.0-58.0-6.0","28","male","","-1","-1","","","","right","98.2734375","50","98.2734375","true","68","","","","","","","","","","","","","","","","","","","","","",""
"null","consolidated-trial-data","null","consolidated-trial-data","consolidated-trial-data","258","881336","0.0-59.0","28","male","","","","","","","","","","","","","","","1","6","21","231","300","69","right","88","1","yes","right","right","98.2734375","true","","","","","",""
"null","fixation","null","fixation","html-keyboard-response","259","881675","0.0-60.0-0.0","28","male","","-1","-1","","","","","","","","","","","","","","","","","","","","","","","","","","","","","","",""
"null","[Dot display: left=300, right=232, diff=68]","null","numerosity","html-keyboard-response","260","882185","0.0-60.0-1.0","28","male","","-1","-1","300","232","68","","","","","","","","","","","","","","","","","","","","","","","","","","","",""
"2165","Confidence judgement (first response)","","confidence_first","html-keyboard-response","261","884351","0.0-60.0-2.0","28","male","","-1","-1","","","","left","62","62","50","true","68","","","","","","","","","","","","","","","","","","","","","",""
"1517","[advice choice Y,N]","0","advice_choice","html-button-response","262","885868","0.0-60.0-3.0-0.0","28","male","","-1","-1","","","","","","","","","","","","","","","","","","","","","","","","","","","","","","",""
"null","[advice: left]","null","show_advice","html-keyboard-response","263","886670","0.0-60.0-3.0-1.0-0.0","28","male","","-1","-1","","","","","","","","","","","left","","","","","","","","","","","","","","","","","","","",""
"1680","Confidence judgment (second response)","","confidence_second","html-keyboard-response","264","888353","0.0-60.0-6.0","28","male","","-1","-1","","","","left","57.7265625","57.7265625","50","true","68","","","","","","","","","","","","","","","","","","","","","",""
"null","consolidated-trial-data","null","consolidated-trial-data","consolidated-trial-data","265","888354","0.0-61.0","28","male","","","","","","","","","","","","","","","1","7","22","300","232","68","left","62","1","yes","left","left","57.7265625","true","","","","","",""
"null","fixation","null","fixation","html-keyboard-response","266","888817","0.0-62.0-0.0","28","male","","-1","-1","","","","","","","","","","","","","","","","","","","","","","","","","","","","","","",""
"null","[Dot display: left=232, right=300, diff=68]","null","numerosity","html-keyboard-response","267","889328","0.0-62.0-1.0","28","male","","-1","-1","232","300","68","","","","","","","","","","","","","","","","","","","","","","","","","","","",""
"1671","Confidence judgement (first response)","","confidence_first","html-keyboard-response","268","891001","0.0-62.0-2.0","28","male","","-1","-1","","","","right","87.5","50","87.5","true","67","","","","","","","","","","","","","","","","","","","","","",""
"1116","[advice choice Y,N]","0","advice_choice","html-button-response","269","892118","0.0-62.0-3.0-0.0","28","male","","-1","-1","","","","","","","","","","","","","","","","","","","","","","","","","","","","","","",""
"null","[advice: left]","null","show_advice","html-keyboard-response","270","892919","0.0-62.0-3.0-1.0-0.0","28","male","","-1","-1","","","","","","","","","","","left","","","","","","","","","","","","","","","","","","","",""
"3187","Confidence judgment (second response)","","confidence_second","html-keyboard-response","271","896108","0.0-62.0-6.0","28","male","","-1","-1","","","","right","69.0234375","50","69.0234375","true","67","","","","","","","","","","","","","","","","","","","","","",""
"null","consolidated-trial-data","null","consolidated-trial-data","consolidated-trial-data","272","896110","0.0-63.0","28","male","","","","","","","","","","","","","","","1","8","23","232","300","68","right","87.5","1","yes","left","right","69.0234375","false","","","","","",""
"1390","block message","0","block_message","html-button-response","273","897501","0.0-64.0","28","male","","","","","","","","","","","","","2","","","","","","","","","","","","","","","","","","","","",""
"null","fixation","null","fixation","html-keyboard-response","274","897765","0.0-65.0-0.0","28","male","","-1","-1","","","","","","","","","","","","","","","","","","","","","","","","","","","","","","",""
"null","[Dot display: left=233, right=300, diff=67]","null","numerosity","html-keyboard-response","275","898276","0.0-65.0-1.0","28","male","","-1","-1","233","300","67","","","","","","","","","","","","","","","","","","","","","","","","","","","",""
"1657","Confidence judgement (first response)","","confidence_first","html-keyboard-response","276","899934","0.0-65.0-2.0","28","male","","-1","-1","","","","right","82.25","50","82.25","true","67","","","","","","","","","","","","","","","","","","","","","",""
"1232","noAdvice","0","no_advice_display","html-button-response","277","901167","0.0-65.0-5.0-0.0","28","male","","-1","-1","","","","","","","","","","","","","","","","","","","","","","","","","","","","","","",""
"null","blank","null","blank_screen","html-keyboard-response","278","901968","0.0-65.0-5.0-1.0","28","male","","-1","-1","","","","","","","","","","","","","","","","","","","","","","","","","","","","","","",""
"2572","Confidence judgment (second response)","","confidence_second","html-keyboard-response","279","904542","0.0-65.0-6.0","28","male","","-1","-1","","","","right","81.2734375","50","81.2734375","true","67","","","","","","","","","","","","","","","","","","","","","",""
"null","consolidated-trial-data","null","consolidated-trial-data","consolidated-trial-data","280","904544","0.0-66.0","28","male","","","","","","","","","","","","","","","1","9","24","233","300","67","right","82.25","3","yes","left","right","81.2734375","false","","","","","",""
"null","fixation","null","fixation","html-keyboard-response","281","904983","0.0-67.0-0.0","28","male","","-1","-1","","","","","","","","","","","","","","","","","","","","","","","","","","","","","","",""
"null","[Dot display: left=300, right=233, diff=67]","null","numerosity","html-keyboard-response","282","905493","0.0-67.0-1.0","28","male","","-1","-1","300","233","67","","","","","","","","","","","","","","","","","","","","","","","","","","","",""
"2100","Confidence judgement (first response)","","confidence_first","html-keyboard-response","283","907594","0.0-67.0-2.0","28","male","","-1","-1","","","","left","61.5","61.5","50","true","66","","","","","","","","","","","","","","","","","","","","","",""
"1255","[advice choice Y,N]","0","advice_choice","html-button-response","284","908850","0.0-67.0-3.0-0.0","28","male","","-1","-1","","","","","","","","","","","","","","","","","","","","","","","","","","","","","","",""
"null","[advice: left]","null","show_advice","html-keyboard-response","285","909652","0.0-67.0-3.0-1.0-0.0","28","male","","-1","-1","","","","","","","","","","","left","","","","","","","","","","","","","","","","","","","",""
"1697","Confidence judgment (second response)","","confidence_second","html-keyboard-response","286","911351","0.0-67.0-6.0","28","male","","-1","-1","","","","left","65.9765625","65.9765625","50","true","66","","","","","","","","","","","","","","","","","","","","","",""
"null","consolidated-trial-data","null","consolidated-trial-data","consolidated-trial-data","287","911353","0.0-68.0","28","male","","","","","","","","","","","","","","","1","10","25","300","233","67","left","61.5","1","yes","left","left","65.9765625","true","","","","","",""
"null","fixation","null","fixation","html-keyboard-response","288","911813","0.0-69.0-0.0","28","male","","-1","-1","","","","","","","","","","","","","","","","","","","","","","","","","","","","","","",""
"null","[Dot display: left=234, right=300, diff=66]","null","numerosity","html-keyboard-response","289","912322","0.0-69.0-1.0","28","male","","-1","-1","234","300","66","","","","","","","","","","","","","","","","","","","","","","","","","","","",""
"1727","Confidence judgement (first response)","","confidence_first","html-keyboard-response","290","914051","0.0-69.0-2.0","28","male","","-1","-1","","","","right","73.25","50","73.25","true","66","","","","","","","","","","","","","","","","","","","","","",""
"1049","forcedAdvice","0","forced_advice_display","html-button-response","291","915101","0.0-69.0-4.0-0.0","28","male","","-1","-1","","","","","","","","","","","","","","","","","","","","","","","","","","","","","","",""
"null","[advice: right]","null","show_advice","html-keyboard-response","292","915904","0.0-69.0-4.0-1.0","28","male","","-1","-1","","","","","","","","","","","right","","","","","","","","","","","","","","","","","","","",""
"1542","Confidence judgment (second response)","","confidence_second","html-keyboard-response","293","917448","0.0-69.0-6.0","28","male","","-1","-1","","","","right","74.0234375","50","74.0234375","true","66","","","","","","","","","","","","","","","","","","","","","",""
"null","consolidated-trial-data","null","consolidated-trial-data","consolidated-trial-data","294","917449","0.0-70.0","28","male","","","","","","","","","","","","","","","1","11","26","234","300","66","right","73.25","2","yes","right","right","74.0234375","true","","","","","",""
"1854","attncheck","2","attncheck","html-button-response","295","919305","0.0-71.0","28","male","","","","","","","","","","","","","","","","","","","","","","","","","","","","","true","Next","","","",""
"null","fixation","null","fixation","html-keyboard-response","296","919716","0.0-72.0-0.0","28","male","","-1","-1","","","","","","","","","","","","","","","","","","","","","","","","","","","","","","",""
"null","[Dot display: left=300, right=234, diff=66]","null","numerosity","html-keyboard-response","297","920227","0.0-72.0-1.0","28","male","","-1","-1","300","234","66","","","","","","","","","","","","","","","","","","","","","","","","","","","",""
"2087.9999999998836","Confidence judgement (first response)","","confidence_first","html-keyboard-response","298","922317","0.0-72.0-2.0","28","male","","-1","-1","","","","left","52.75","52.75","50","true","65","","","","","","","","","","","","","","","","","","","","","",""
"999","noAdvice","0","no_advice_display","html-button-response","299","923318","0.0-72.0-5.0-0.0","28","male","","-1","-1","","","","","","","","","","","","","","","","","","","","","","","","","","","","","","",""
"null","blank","null","blank_screen","html-keyboard-response","300","924120","0.0-72.0-5.0-1.0","28","male","","-1","-1","","","","","","","","","","","","","","","","","","","","","","","","","","","","","","",""
"2901","Confidence judgment (second response)","","confidence_second","html-keyboard-response","301","927023","0.0-72.0-6.0","28","male","","-1","-1","","","","left","53.2265625","53.2265625","50","true","65","","","","","","","","","","","","","","","","","","","","","",""
"null","consolidated-trial-data","null","consolidated-trial-data","consolidated-trial-data","302","927025","0.0-73.0","28","male","","","","","","","","","","","","","","","1","12","27","300","234","66","left","52.75","3","yes","right","left","53.2265625","false","","","","","",""
"1391","attncheck","1","attncheck","html-button-response","303","928417","0.0-74.0","28","male","","","","","","","","","","","","","","","","","","","","","","","","","","","","","true","Continue","","","",""
"null","fixation","null","fixation","html-keyboard-response","304","928660","0.0-75.0-0.0","28","male","","-1","-1","","","","","","","","","","","","","","","","","","","","","","","","","","","","","","",""
"null","[Dot display: left=300, right=235, diff=65]","null","numerosity","html-keyboard-response","305","929170","0.0-75.0-1.0","28","male","","-1","-1","300","235","65","","","","","","","","","","","","","","","","","","","","","","","","","","","",""
"1530","Confidence judgement (first response)","","confidence_first","html-keyboard-response","306","930702","0.0-75.0-2.0","28","male","","-1","-1","","","","left","69.75","69.75","50","true","65","","","","","","","","","","","","","","","","","","","","","",""
"997","forcedAdvice","0","forced_advice_display","html-button-response","307","931700","0.0-75.0-4.0-0.0","28","male","","-1","-1","","","","","","","","","","","","","","","","","","","","","","","","","","","","","","",""
"null","[advice: left]","null","show_advice","html-keyboard-response","308","932502","0.0-75.0-4.0-1.0","28","male","","-1","-1","","","","","","","","","","","left","","","","","","","","","","","","","","","","","","","",""
"1630","Confidence judgment (second response)","","confidence_second","html-keyboard-response","309","934134","0.0-75.0-6.0","28","male","","-1","-1","","","","left","68.4765625","68.4765625","50","true","65","","","","","","","","","","","","","","","","","","","","","",""
"null","consolidated-trial-data","null","consolidated-trial-data","consolidated-trial-data","310","934135","0.0-76.0","28","male","","","","","","","","","","","","","","","1","13","28","300","235","65","left","69.75","2","yes","left","left","68.4765625","true","","","","","",""
"null","fixation","null","fixation","html-keyboard-response","311","934359","0.0-77.0-0.0","28","male","","-1","-1","","","","","","","","","","","","","","","","","","","","","","","","","","","","","","",""
"null","[Dot display: left=300, right=235, diff=65]","null","numerosity","html-keyboard-response","312","934867","0.0-77.0-1.0","28","male","","-1","-1","300","235","65","","","","","","","","","","","","","","","","","","","","","","","","","","","",""
"1833","Confidence judgement (first response)","","confidence_first","html-keyboard-response","313","936703","0.0-77.0-2.0","28","male","","-1","-1","","","","left","74","74","50","true","64","","","","","","","","","","","","","","","","","","","","","",""
"1005","noAdvice","0","no_advice_display","html-button-response","314","937709","0.0-77.0-5.0-0.0","28","male","","-1","-1","","","","","","","","","","","","","","","","","","","","","","","","","","","","","","",""
"null","blank","null","blank_screen","html-keyboard-response","315","938511","0.0-77.0-5.0-1.0","28","male","","-1","-1","","","","","","","","","","","","","","","","","","","","","","","","","","","","","","",""
"3489.0000000001164","Confidence judgment (second response)","","confidence_second","html-keyboard-response","316","942002","0.0-77.0-6.0","28","male","","-1","-1","","","","left","54.2265625","54.2265625","50","true","64","","","","","","","","","","","","","","","","","","","","","",""
"null","consolidated-trial-data","null","consolidated-trial-data","consolidated-trial-data","317","942003","0.0-78.0","28","male","","","","","","","","","","","","","","","1","14","29","300","235","65","left","74","3","yes","left","left","54.2265625","true","","","","","",""
"1248","block message","0","block_message","html-button-response","318","943252","0.0-79.0","28","male","","","","","","","","","","","","","3","","","","","","","","","","","","","","","","","","","","",""
"1199","attncheck","1","attncheck","html-button-response","319","944451","0.0-80.0","28","male","","","","","","","","","","","","","","","","","","","","","","","","","","","","","true","Continue","","","",""
"null","fixation","null","fixation","html-keyboard-response","320","944705","0.0-81.0-0.0","28","male","","-1","-1","","","","","","","","","","","","","","","","","","","","","","","","","","","","","","",""
"null","[Dot display: left=300, right=236, diff=64]","null","numerosity","html-keyboard-response","321","945215","0.0-81.0-1.0","28","male","","-1","-1","300","236","64","","","","","","","","","","","","","","","","","","","","","","","","","","","",""
"1468.0000000001164","Confidence judgement (first response)","","confidence_first","html-keyboard-response","322","946685","0.0-81.0-2.0","28","male","","-1","-1","","","","left","61.5","61.5","50","true","64","","","","","","","","","","","","","","","","","","","","","",""
"1000","forcedAdvice","0","forced_advice_display","html-button-response","323","947687","0.0-81.0-4.0-0.0","28","male","","-1","-1","","","","","","","","","","","","","","","","","","","","","","","","","","","","","","",""
"null","[advice: left]","null","show_advice","html-keyboard-response","324","948489","0.0-81.0-4.0-1.0","28","male","","-1","-1","","","","","","","","","","","left","","","","","","","","","","","","","","","","","","","",""
"1542","Confidence judgment (second response)","","confidence_second","html-keyboard-response","325","950034","0.0-81.0-6.0","28","male","","-1","-1","","","","left","61.9765625","61.9765625","50","true","64","","","","","","","","","","","","","","","","","","","","","",""
"null","consolidated-trial-data","null","consolidated-trial-data","consolidated-trial-data","326","950036","0.0-82.0","28","male","","","","","","","","","","","","","","","2","0","30","300","236","64","left","61.5","2","yes","left","left","61.9765625","true","","","","","",""
"null","fixation","null","fixation","html-keyboard-response","327","950254","0.0-83.0-0.0","28","male","","-1","-1","","","","","","","","","","","","","","","","","","","","","","","","","","","","","","",""
"null","[Dot display: left=300, right=236, diff=64]","null","numerosity","html-keyboard-response","328","950766","0.0-83.0-1.0","28","male","","-1","-1","300","236","64","","","","","","","","","","","","","","","","","","","","","","","","","","","",""
"1366","Confidence judgement (first response)","","confidence_first","html-keyboard-response","329","952135","0.0-83.0-2.0","28","male","","-1","-1","","","","left","79.25","79.25","50","true","64","","","","","","","","","","","","","","","","","","","","","",""
"1048","[advice choice Y,N]","0","advice_choice","html-button-response","330","953184","0.0-83.0-3.0-0.0","28","male","","-1","-1","","","","","","","","","","","","","","","","","","","","","","","","","","","","","","",""
"null","[advice: left]","null","show_advice","html-keyboard-response","331","953986","0.0-83.0-3.0-1.0-0.0","28","male","","-1","-1","","","","","","","","","","","left","","","","","","","","","","","","","","","","","","","",""
"1297.0000000001164","Confidence judgment (second response)","","confidence_second","html-keyboard-response","332","955285","0.0-83.0-6.0","28","male","","-1","-1","","","","left","79.4765625","79.4765625","50","true","63","","","","","","","","","","","","","","","","","","","","","",""
"null","consolidated-trial-data","null","consolidated-trial-data","consolidated-trial-data","333","955286","0.0-84.0","28","male","","","","","","","","","","","","","","","2","1","31","300","236","64","left","79.25","1","yes","left","left","79.4765625","true","","","","","",""
"null","fixation","null","fixation","html-keyboard-response","334","955595","0.0-85.0-0.0","28","male","","-1","-1","","","","","","","","","","","","","","","","","","","","","","","","","","","","","","",""
"null","[Dot display: left=237, right=300, diff=63]","null","numerosity","html-keyboard-response","335","956107","0.0-85.0-1.0","28","male","","-1","-1","237","300","63","","","","","","","","","","","","","","","","","","","","","","","","","","","",""
"1576","Confidence judgement (first response)","","confidence_first","html-keyboard-response","336","957685","0.0-85.0-2.0","28","male","","-1","-1","","","","right","74.75","50","74.75","true","63","","","","","","","","","","","","","","","","","","","","","",""
"1047","forcedAdvice","0","forced_advice_display","html-button-response","337","958733","0.0-85.0-4.0-0.0","28","male","","-1","-1","","","","","","","","","","","","","","","","","","","","","","","","","","","","","","",""
"null","[advice: right]","null","show_advice","html-keyboard-response","338","959535","0.0-85.0-4.0-1.0","28","male","","-1","-1","","","","","","","","","","","right","","","","","","","","","","","","","","","","","","","",""
"3517.0000000001164","Confidence judgment (second response)","","confidence_second","html-keyboard-response","339","963053","0.0-85.0-6.0","28","male","","-1","-1","","","","right","85.2734375","50","85.2734375","true","63","","","","","","","","","","","","","","","","","","","","","",""
"null","consolidated-trial-data","null","consolidated-trial-data","consolidated-trial-data","340","963055","0.0-86.0","28","male","","","","","","","","","","","","","","","2","2","32","237","300","63","right","74.75","2","yes","right","right","85.2734375","true","","","","","",""
"null","fixation","null","fixation","html-keyboard-response","341","963321","0.0-87.0-0.0","28","male","","-1","-1","","","","","","","","","","","","","","","","","","","","","","","","","","","","","","",""
"null","[Dot display: left=300, right=237, diff=63]","null","numerosity","html-keyboard-response","342","963829","0.0-87.0-1.0","28","male","","-1","-1","300","237","63","","","","","","","","","","","","","","","","","","","","","","","","","","","",""
"1637.0000000001164","Confidence judgement (first response)","","confidence_first","html-keyboard-response","343","965468","0.0-87.0-2.0","28","male","","-1","-1","","","","left","64.5","64.5","50","true","63","","","","","","","","","","","","","","","","","","","","","",""
"931","noAdvice","0","no_advice_display","html-button-response","344","966400","0.0-87.0-5.0-0.0","28","male","","-1","-1","","","","","","","","","","","","","","","","","","","","","","","","","","","","","","",""
"null","blank","null","blank_screen","html-keyboard-response","345","967203","0.0-87.0-5.0-1.0","28","male","","-1","-1","","","","","","","","","","","","","","","","","","","","","","","","","","","","","","",""
"2349","Confidence judgment (second response)","","confidence_second","html-keyboard-response","346","969555","0.0-87.0-6.0","28","male","","-1","-1","","","","left","65.4765625","65.4765625","50","true","63","","","","","","","","","","","","","","","","","","","","","",""
"null","consolidated-trial-data","null","consolidated-trial-data","consolidated-trial-data","347","969556","0.0-88.0","28","male","","","","","","","","","","","","","","","2","3","33","300","237","63","left","64.5","3","yes","right","left","65.4765625","false","","","","","",""
"1145","block message","0","block_message","html-button-response","348","970702","0.0-89.0","28","male","","","","","","","","","","","","","3","","","","","","","","","","","","","","","","","","","","",""
"null","fixation","null","fixation","html-keyboard-response","349","971065","0.0-90.0-0.0","28","male","","-1","-1","","","","","","","","","","","","","","","","","","","","","","","","","","","","","","",""
"null","[Dot display: left=237, right=300, diff=63]","null","numerosity","html-keyboard-response","350","971574","0.0-90.0-1.0","28","male","","-1","-1","237","300","63","","","","","","","","","","","","","","","","","","","","","","","","","","","",""
"1842","Confidence judgement (first response)","","confidence_first","html-keyboard-response","351","973417","0.0-90.0-2.0","28","male","","-1","-1","","","","right","67.25","50","67.25","true","62","","","","","","","","","","","","","","","","","","","","","",""
"883","forcedAdvice","0","forced_advice_display","html-button-response","352","974301","0.0-90.0-4.0-0.0","28","male","","-1","-1","","","","","","","","","","","","","","","","","","","","","","","","","","","","","","",""
"null","[advice: right]","null","show_advice","html-keyboard-response","353","975103","0.0-90.0-4.0-1.0","28","male","","-1","-1","","","","","","","","","","","right","","","","","","","","","","","","","","","","","","","",""
"1627.9999999998836","Confidence judgment (second response)","","confidence_second","html-keyboard-response","354","976733","0.0-90.0-6.0","28","male","","-1","-1","","","","right","68.5234375","50","68.5234375","true","62","","","","","","","","","","","","","","","","","","","","","",""
"null","consolidated-trial-data","null","consolidated-trial-data","consolidated-trial-data","355","976734","0.0-91.0","28","male","","","","","","","","","","","","","","","2","4","34","237","300","63","right","67.25","2","yes","right","right","68.5234375","true","","","","","",""
"null","fixation","null","fixation","html-keyboard-response","356","977206","0.0-92.0-0.0","28","male","","-1","-1","","","","","","","","","","","","","","","","","","","","","","","","","","","","","","",""
"null","[Dot display: left=300, right=238, diff=62]","null","numerosity","html-keyboard-response","357","977715","0.0-92.0-1.0","28","male","","-1","-1","300","238","62","","","","","","","","","","","","","","","","","","","","","","","","","","","",""
"2067.9999999998836","Confidence judgement (first response)","","confidence_first","html-keyboard-response","358","979785","0.0-92.0-2.0","28","male","","-1","-1","","","","left","69.5","69.5","50","true","62","","","","","","","","","","","","","","","","","","","","","",""
"1397","noAdvice","0","no_advice_display","html-button-response","359","981183","0.0-92.0-5.0-0.0","28","male","","-1","-1","","","","","","","","","","","","","","","","","","","","","","","","","","","","","","",""
"null","blank","null","blank_screen","html-keyboard-response","360","981985","0.0-92.0-5.0-1.0","28","male","","-1","-1","","","","","","","","","","","","","","","","","","","","","","","","","","","","","","",""
"2196","Confidence judgment (second response)","","confidence_second","html-keyboard-response","361","984183","0.0-92.0-6.0","28","male","","-1","-1","","","","left","67.4765625","67.4765625","50","true","62","","","","","","","","","","","","","","","","","","","","","",""
"null","consolidated-trial-data","null","consolidated-trial-data","consolidated-trial-data","362","984184","0.0-93.0","28","male","","","","","","","","","","","","","","","2","5","35","300","238","62","left","69.5","3","yes","right","left","67.4765625","false","","","","","",""
"null","fixation","null","fixation","html-keyboard-response","363","984551","0.0-94.0-0.0","28","male","","-1","-1","","","","","","","","","","","","","","","","","","","","","","","","","","","","","","",""
"null","[Dot display: left=300, right=238, diff=62]","null","numerosity","html-keyboard-response","364","985061","0.0-94.0-1.0","28","male","","-1","-1","300","238","62","","","","","","","","","","","","","","","","","","","","","","","","","","","",""
"1904.9999999998836","Confidence judgement (first response)","","confidence_first","html-keyboard-response","365","986967","0.0-94.0-2.0","28","male","","-1","-1","","","","left","82","82","50","true","62","","","","","","","","","","","","","","","","","","","","","",""
"2200","[advice choice Y,N]","0","advice_choice","html-button-response","366","989168","0.0-94.0-3.0-0.0","28","male","","-1","-1","","","","","","","","","","","","","","","","","","","","","","","","","","","","","","",""
"null","[advice: left]","null","show_advice","html-keyboard-response","367","989972","0.0-94.0-3.0-1.0-0.0","28","male","","-1","-1","","","","","","","","","","","left","","","","","","","","","","","","","","","","","","","",""
"2085","Confidence judgment (second response)","","confidence_second","html-keyboard-response","368","992058","0.0-94.0-6.0","28","male","","-1","-1","","","","left","80.4765625","80.4765625","50","true","62","","","","","","","","","","","","","","","","","","","","","",""
"null","consolidated-trial-data","null","consolidated-trial-data","consolidated-trial-data","369","992060","0.0-95.0","28","male","","","","","","","","","","","","","","","2","6","36","300","238","62","left","82","1","yes","left","left","80.4765625","true","","","","","",""
"null","fixation","null","fixation","html-keyboard-response","370","992538","0.0-96.0-0.0","28","male","","-1","-1","","","","","","","","","","","","","","","","","","","","","","","","","","","","","","",""
"null","[Dot display: left=238, right=300, diff=62]","null","numerosity","html-keyboard-response","371","993046","0.0-96.0-1.0","28","male","","-1","-1","238","300","62","","","","","","","","","","","","","","","","","","","","","","","","","","","",""
"2452","Confidence judgement (first response)","","confidence_first","html-keyboard-response","372","995500","0.0-96.0-2.0","28","male","","-1","-1","","","","right","90.5","50","90.5","true","61","","","","","","","","","","","","","","","","","","","","","",""
"1669","[advice choice Y,N]","0","advice_choice","html-button-response","373","997170","0.0-96.0-3.0-0.0","28","male","","-1","-1","","","","","","","","","","","","","","","","","","","","","","","","","","","","","","",""
"null","[advice: left]","null","show_advice","html-keyboard-response","374","997972","0.0-96.0-3.0-1.0-0.0","28","male","","-1","-1","","","","","","","","","","","left","","","","","","","","","","","","","","","","","","","",""
"3467","Confidence judgment (second response)","","confidence_second","html-keyboard-response","375","1001442","0.0-96.0-6.0","28","male","","-1","-1","","","","right","62.7734375","50","62.7734375","true","61","","","","","","","","","","","","","","","","","","","","","",""
"null","consolidated-trial-data","null","consolidated-trial-data","consolidated-trial-data","376","1001444","0.0-97.0","28","male","","","","","","","","","","","","","","","2","7","37","238","300","62","right","90.5","1","yes","left","right","62.7734375","false","","","","","",""
"1506","attncheck","1","attncheck","html-button-response","377","1002952","0.0-98.0","28","male","","","","","","","","","","","","","","","","","","","","","","","","","","","","","true","Continue","","","",""
"null","fixation","null","fixation","html-keyboard-response","378","1003283","0.0-99.0-0.0","28","male","","-1","-1","","","","","","","","","","","","","","","","","","","","","","","","","","","","","","",""
"null","[Dot display: left=239, right=300, diff=61]","null","numerosity","html-keyboard-response","379","1003796","0.0-99.0-1.0","28","male","","-1","-1","239","300","61","","","","","","","","","","","","","","","","","","","","","","","","","","","",""
"1736","Confidence judgement (first response)","","confidence_first","html-keyboard-response","380","1005533","0.0-99.0-2.0","28","male","","-1","-1","","","","right","87.25","50","87.25","true","61","","","","","","","","","","","","","","","","","","","","","",""
"1570","[advice choice Y,N]","0","advice_choice","html-button-response","381","1007104","0.0-99.0-3.0-0.0","28","male","","-1","-1","","","","","","","","","","","","","","","","","","","","","","","","","","","","","","",""
"null","[advice: right]","null","show_advice","html-keyboard-response","382","1007907","0.0-99.0-3.0-1.0-0.0","28","male","","-1","-1","","","","","","","","","","","right","","","","","","","","","","","","","","","","","","","",""
"2192","Confidence judgment (second response)","","confidence_second","html-keyboard-response","383","1010101","0.0-99.0-6.0","28","male","","-1","-1","","","","right","90.0234375","50","90.0234375","true","61","","","","","","","","","","","","","","","","","","","","","",""
"null","consolidated-trial-data","null","consolidated-trial-data","consolidated-trial-data","384","1010103","0.0-100.0","28","male","","","","","","","","","","","","","","","2","8","38","239","300","61","right","87.25","1","yes","right","right","90.0234375","true","","","","","",""
"1182","block message","0","block_message","html-button-response","385","1011289","0.0-101.0","28","male","","","","","","","","","","","","","3","","","","","","","","","","","","","","","","","","","","",""
"null","fixation","null","fixation","html-keyboard-response","386","1011590","0.0-102.0-0.0","28","male","","-1","-1","","","","","","","","","","","","","","","","","","","","","","","","","","","","","","",""
"null","[Dot display: left=300, right=239, diff=61]","null","numerosity","html-keyboard-response","387","1012102","0.0-102.0-1.0","28","male","","-1","-1","300","239","61","","","","","","","","","","","","","","","","","","","","","","","","","","","",""
"2329.9999999998836","Confidence judgement (first response)","","confidence_first","html-keyboard-response","388","1014434","0.0-102.0-2.0","28","male","","-1","-1","","","","right","72.75","50","72.75","false","62","","","","","","","","","","","","","","","","","","","","","",""
"964","noAdvice","0","no_advice_display","html-button-response","389","1015400","0.0-102.0-5.0-0.0","28","male","","-1","-1","","","","","","","","","","","","","","","","","","","","","","","","","","","","","","",""
"null","blank","null","blank_screen","html-keyboard-response","390","1016202","0.0-102.0-5.0-1.0","28","male","","-1","-1","","","","","","","","","","","","","","","","","","","","","","","","","","","","","","",""
"1817","Confidence judgment (second response)","","confidence_second","html-keyboard-response","391","1018023","0.0-102.0-6.0","28","male","","-1","-1","","","","right","75.2734375","50","75.2734375","false","62","","","","","","","","","","","","","","","","","","","","","",""
"null","consolidated-trial-data","null","consolidated-trial-data","consolidated-trial-data","392","1018024","0.0-103.0","28","male","","","","","","","","","","","","","","","2","9","39","300","239","61","right","72.75","3","yes","right","right","75.2734375","false","","","","","",""
"null","fixation","null","fixation","html-keyboard-response","393","1018253","0.0-104.0-0.0","28","male","","-1","-1","","","","","","","","","","","","","","","","","","","","","","","","","","","","","","",""
"null","[Dot display: left=238, right=300, diff=62]","null","numerosity","html-keyboard-response","394","1018763","0.0-104.0-1.0","28","male","","-1","-1","238","300","62","","","","","","","","","","","","","","","","","","","","","","","","","","","",""
"1767","Confidence judgement (first response)","","confidence_first","html-keyboard-response","395","1020533","0.0-104.0-2.0","28","male","","-1","-1","","","","right","74.75","50","74.75","true","62","","","","","","","","","","","","","","","","","","","","","",""
"1315","[advice choice Y,N]","0","advice_choice","html-button-response","396","1021849","0.0-104.0-3.0-0.0","28","male","","-1","-1","","","","","","","","","","","","","","","","","","","","","","","","","","","","","","",""
"null","[advice: right]","null","show_advice","html-keyboard-response","397","1022651","0.0-104.0-3.0-1.0-0.0","28","male","","-1","-1","","","","","","","","","","","right","","","","","","","","","","","","","","","","","","","",""
"1611.9999999998836","Confidence judgment (second response)","","confidence_second","html-keyboard-response","398","1024266","0.0-104.0-6.0","28","male","","-1","-1","","","","right","80.5234375","50","80.5234375","true","62","","","","","","","","","","","","","","","","","","","","","",""
"null","consolidated-trial-data","null","consolidated-trial-data","consolidated-trial-data","399","1024269","0.0-105.0","28","male","","","","","","","","","","","","","","","2","10","40","238","300","62","right","74.75","1","yes","right","right","80.5234375","true","","","","","",""
"null","fixation","null","fixation","html-keyboard-response","400","1024697","0.0-106.0-0.0","28","male","","-1","-1","","","","","","","","","","","","","","","","","","","","","","","","","","","","","","",""
"null","[Dot display: left=238, right=300, diff=62]","null","numerosity","html-keyboard-response","401","1025210","0.0-106.0-1.0","28","male","","-1","-1","238","300","62","","","","","","","","","","","","","","","","","","","","","","","","","","","",""
"1689.9999999998836","Confidence judgement (first response)","","confidence_first","html-keyboard-response","402","1026900","0.0-106.0-2.0","28","male","","-1","-1","","","","right","94.5","50","94.5","true","62","","","","","","","","","","","","","","","","","","","","","",""
