"success","task","trial_type","trial_index","time_elapsed","internal_node_id","rt","stimulus","response","pixels_per_unit","itrial","iblock","leftDots","rightDots","difference","selected_side","confidence_value","left_confidence","right_confidence","correct","threshold","block_num","block","trial","trialid","dotsLeft","dotsRight","dotsDiff","selectedSide_first","confidence_first","correct_1","rt_1","adviceCond","adviceChoice","adviceDir","selectedSide_second","confidence_second","adviceCorrect","correct_2","rt_2","advice_direction","attention_check_correct","target_button","top_prompt","bottom_prompt","top_response","bottom_response","question_order"
"true","fullscreen_enter","fullscreen","0","1880","0.0-0.0","","","","","","","","","","","","","","","","","","","","","","","","","","","","","","","","","","","","","","","","","",""
"","welcome","html-button-response","1","3178","0.0-1.0","1294","welcome_msg","0","","","","","","","","","","","","","","","","","","","","","","","","","","","","","","","","","","","","","","",""
"","PISdoc","html-button-response","2","14624","0.0-2.0","11441","PISdoc","0","","","","","","","","","","","","","","","","","","","","","","","","","","","","","","","","","","","","","","",""
"","demographics","survey-html-form","3","17986","0.0-3.0","3358","","{""age"":""99"",""gender"":""male"",""id"":""6538""}","","","","","","","","","","","","","","","","","","","","","","","","","","","","","","","","","","","","","","",""
"","dass10","survey-likert","4","54054","0.0-4.0","36064","","{""felt_panic"":0,""no_initiative"":1,""felt_blue"":1,""was_intolerant"":0,""nothing_forward"":0,""felt_scared"":0,""over_react"":0,""felt_worry"":0,""no_relax"":1,""no_positive"":0,""felt_annoyed"":0,""EOL_thoughts"":0}","","","","","","","","","","","","","","","","","","","","","","","","","","","","","","","","","","","","","","",""
"","pracInstructions","html-button-response","5","56886","0.0-5.0-0.0","2826","pracInstruc","0","","","","","","","","","","","","","","","","","","","","","","","","","","","","","","","","","","","","","","",""
"","pracInstructions","html-button-response","6","61335","0.0-5.0-0.1","4447","pracInstruc","0","","","","","","","","","","","","","","","","","","","","","","","","","","","","","","","","","","","","","","",""
"","pracInstructions","html-button-response","7","65821","0.0-5.0-0.2","4483","pracInstruc","0","","","","","","","","","","","","","","","","","","","","","","","","","","","","","","","","","","","","","","",""
"","pracInstructions","html-button-response","8","68813","0.0-5.0-0.3","2991","pracInstruc","0","","","","","","","","","","","","","","","","","","","","","","","","","","","","","","","","","","","","","","",""
"","pracInstructions","html-button-response","9","71246","0.0-5.0-0.4","2431","pracInstruc","0","","","","","","","","","","","","","","","","","","","","","","","","","","","","","","","","","","","","","","",""
"","pracInstructions","html-button-response","10","72862","0.0-5.0-0.5","1614","pracInstruc","0","","","","","","","","","","","","","","","","","","","","","","","","","","","","","","","","","","","","","","",""
"","pracInstructions","html-button-response","11","75438","0.0-5.0-0.6","2574","pracInstruc","0","","","","","","","","","","","","","","","","","","","","","","","","","","","","","","","","","","","","","","",""
"","","html-button-response","12","104340","0.0-6.0","28899","<div style= ""font-size: 24px; color: white"">
                        
                            <p>First, Please hold a credit card up to your screen.</p>
                            <p>Adjust this box until it matches the size of the credit card.</p>
                            <div id=""calibration-box"" style=""
                                width: 506px;
                                height: 319px;
                                border: 2px solid white;
                                background-color: rgba(255,255,255,0.2);
                                margin: 20px auto;
                                resize: both;
                                overflow: hidden;
                            ""></div>
                        </div>
                    ","0","97","","","","","","","","","","","","","","","","","","","","","","","","","","","","","","","","","","","","","",""
"","fixation","html-keyboard-response","13","105682","0.0-7.0-0.0","null","fixation","null","","-1","-1","","","","","","","","","","","","","","","","","","","","","","","","","","","","","","","","","","","",""
"","numerosity","html-keyboard-response","14","106191","0.0-7.0-1.0","null","[Dot display: left=300, right=250, diff=50]","null","","-1","-1","300","250","50","","","","","","","","","","","","","","","","","","","","","","","","","","","","","","","","",""
"","confidence_first","html-keyboard-response","15","109555","0.0-7.0-2.0","3356.3999999910593","Confidence judgement (first response)","","","-1","-1","","","","left","94.5","94.5","50","true","19","","","","","","","","","","","","","","","","","","","","","","","","","","",""
"","fixation","html-keyboard-response","16","111028","0.0-8.0-0.0","null","fixation","null","","-1","-1","","","","","","","","","","","","","","","","","","","","","","","","","","","","","","","","","","","",""
"","numerosity","html-keyboard-response","17","111535","0.0-8.0-1.0","null","[Dot display: left=300, right=250, diff=50]","null","","-1","-1","300","250","50","","","","","","","","","","","","","","","","","","","","","","","","","","","","","","","","",""
"","confidence_first","html-keyboard-response","18","114351","0.0-8.0-2.0","2812.699999988079","Confidence judgement (first response)","","","-1","-1","","","","left","70.5","70.5","50","true","19","","","","","","","","","","","","","","","","","","","","","","","","","","",""
"","fixation","html-keyboard-response","19","115751","0.0-9.0-0.0","null","fixation","null","","-1","-1","","","","","","","","","","","","","","","","","","","","","","","","","","","","","","","","","","","",""
"","numerosity","html-keyboard-response","20","116257","0.0-9.0-1.0","null","[Dot display: left=250, right=300, diff=50]","null","","-1","-1","250","300","50","","","","","","","","","","","","","","","","","","","","","","","","","","","","","","","","",""
"","confidence_first","html-keyboard-response","21","117840","0.0-9.0-2.0","1580.2000000029802","Confidence judgement (first response)","","","-1","-1","","","","left","58","58","50","false","35","","","","","","","","","","","","","","","","","","","","","","","","","","",""
"","fixation","html-keyboard-response","22","119199","0.0-10.0-0.0","null","fixation","null","","-1","-1","","","","","","","","","","","","","","","","","","","","","","","","","","","","","","","","","","","",""
"","numerosity","html-keyboard-response","23","119706","0.0-10.0-1.0","null","[Dot display: left=265, right=300, diff=35]","null","","-1","-1","265","300","35","","","","","","","","","","","","","","","","","","","","","","","","","","","","","","","","",""
"","confidence_first","html-keyboard-response","24","120806","0.0-10.0-2.0","1097.7999999970198","Confidence judgement (first response)","","","-1","-1","","","","right","58.75","50","58.75","true","31","","","","","","","","","","","","","","","","","","","","","","","","","","",""
"","fixation","html-keyboard-response","25","122276","0.0-11.0-0.0","null","fixation","null","","-1","-1","","","","","","","","","","","","","","","","","","","","","","","","","","","","","","","","","","","",""
"","numerosity","html-keyboard-response","26","122785","0.0-11.0-1.0","null","[Dot display: left=269, right=300, diff=31]","null","","-1","-1","269","300","31","","","","","","","","","","","","","","","","","","","","","","","","","","","","","","","","",""
"","confidence_first","html-keyboard-response","27","123886","0.0-11.0-2.0","1097.5999999940395","Confidence judgement (first response)","","","-1","-1","","","","left","76.75","76.75","50","false","46","","","","","","","","","","","","","","","","","","","","","","","","","","",""
"","fixation","html-keyboard-response","28","125269","0.0-12.0-0.0","null","fixation","null","","-1","-1","","","","","","","","","","","","","","","","","","","","","","","","","","","","","","","","","","","",""
"","numerosity","html-keyboard-response","29","125775","0.0-12.0-1.0","null","[Dot display: left=300, right=254, diff=46]","null","","-1","-1","300","254","46","","","","","","","","","","","","","","","","","","","","","","","","","","","","","","","","",""
"","confidence_first","html-keyboard-response","30","126934","0.0-12.0-2.0","1155.8999999910593","Confidence judgement (first response)","","","-1","-1","","","","left","76.75","76.75","50","true","45","","","","","","","","","","","","","","","","","","","","","","","","","","",""
"","fixation","html-keyboard-response","31","128302","0.0-13.0-0.0","null","fixation","null","","-1","-1","","","","","","","","","","","","","","","","","","","","","","","","","","","","","","","","","","","",""
"","numerosity","html-keyboard-response","32","128810","0.0-13.0-1.0","null","[Dot display: left=300, right=255, diff=45]","null","","-1","-1","300","255","45","","","","","","","","","","","","","","","","","","","","","","","","","","","","","","","","",""
"","confidence_first","html-keyboard-response","33","130148","0.0-13.0-2.0","1334.8999999910593","Confidence judgement (first response)","","","-1","-1","","","","left","84.5","84.5","50","true","43","","","","","","","","","","","","","","","","","","","","","","","","","","",""
"","fixation","html-keyboard-response","34","131424","0.0-14.0-0.0","null","fixation","null","","-1","-1","","","","","","","","","","","","","","","","","","","","","","","","","","","","","","","","","","","",""
"","numerosity","html-keyboard-response","35","131931","0.0-14.0-1.0","null","[Dot display: left=300, right=257, diff=43]","null","","-1","-1","300","257","43","","","","","","","","","","","","","","","","","","","","","","","","","","","","","","","","",""
"","confidence_first","html-keyboard-response","36","133284","0.0-14.0-2.0","1350.5999999940395","Confidence judgement (first response)","","","-1","-1","","","","left","88.25","88.25","50","true","42","","","","","","","","","","","","","","","","","","","","","","","","","","",""
"","fixation","html-keyboard-response","37","134786","0.0-15.0-0.0","null","fixation","null","","-1","-1","","","","","","","","","","","","","","","","","","","","","","","","","","","","","","","","","","","",""
"","numerosity","html-keyboard-response","38","135291","0.0-15.0-1.0","null","[Dot display: left=300, right=258, diff=42]","null","","-1","-1","300","258","42","","","","","","","","","","","","","","","","","","","","","","","","","","","","","","","","",""
"","confidence_first","html-keyboard-response","39","137196","0.0-15.0-2.0","1902","Confidence judgement (first response)","","","-1","-1","","","","left","85","85","50","true","41","","","","","","","","","","","","","","","","","","","","","","","","","","",""
"","fixation","html-keyboard-response","40","138538","0.0-16.0-0.0","null","fixation","null","","-1","-1","","","","","","","","","","","","","","","","","","","","","","","","","","","","","","","","","","","",""
"","numerosity","html-keyboard-response","41","139047","0.0-16.0-1.0","null","[Dot display: left=259, right=300, diff=41]","null","","-1","-1","259","300","41","","","","","","","","","","","","","","","","","","","","","","","","","","","","","","","","",""
"","confidence_first","html-keyboard-response","42","141682","0.0-16.0-2.0","2632.5","Confidence judgement (first response)","","","-1","-1","","","","right","70.5","50","70.5","true","39","","","","","","","","","","","","","","","","","","","","","","","","","","",""
"","fixation","html-keyboard-response","43","143003","0.0-17.0-0.0","null","fixation","null","","-1","-1","","","","","","","","","","","","","","","","","","","","","","","","","","","","","","","","","","","",""
"","numerosity","html-keyboard-response","44","143511","0.0-17.0-1.0","null","[Dot display: left=300, right=261, diff=39]","null","","-1","-1","300","261","39","","","","","","","","","","","","","","","","","","","","","","","","","","","","","","","","",""
"","confidence_first","html-keyboard-response","45","145009","0.0-17.0-2.0","1494.9000000059605","Confidence judgement (first response)","","","-1","-1","","","","left","90.25","90.25","50","true","38","","","","","","","","","","","","","","","","","","","","","","","","","","",""
"","fixation","html-keyboard-response","46","146324","0.0-18.0-0.0","null","fixation","null","","-1","-1","","","","","","","","","","","","","","","","","","","","","","","","","","","","","","","","","","","",""
"","numerosity","html-keyboard-response","47","146831","0.0-18.0-1.0","null","[Dot display: left=300, right=262, diff=38]","null","","-1","-1","300","262","38","","","","","","","","","","","","","","","","","","","","","","","","","","","","","","","","",""
"","confidence_first","html-keyboard-response","48","148378","0.0-18.0-2.0","1543.2999999970198","Confidence judgement (first response)","","","-1","-1","","","","left","95.75","95.75","50","true","36","","","","","","","","","","","","","","","","","","","","","","","","","","",""
"","fixation","html-keyboard-response","49","149621","0.0-19.0-0.0","null","fixation","null","","-1","-1","","","","","","","","","","","","","","","","","","","","","","","","","","","","","","","","","","","",""
"","numerosity","html-keyboard-response","50","150129","0.0-19.0-1.0","null","[Dot display: left=300, right=264, diff=36]","null","","-1","-1","300","264","36","","","","","","","","","","","","","","","","","","","","","","","","","","","","","","","","",""
"","confidence_first","html-keyboard-response","51","151554","0.0-19.0-2.0","1422.5999999940395","Confidence judgement (first response)","","","-1","-1","","","","left","86.25","86.25","50","true","35","","","","","","","","","","","","","","","","","","","","","","","","","","",""
"","fixation","html-keyboard-response","52","152973","0.0-20.0-0.0","null","fixation","null","","-1","-1","","","","","","","","","","","","","","","","","","","","","","","","","","","","","","","","","","","",""
"","numerosity","html-keyboard-response","53","153481","0.0-20.0-1.0","null","[Dot display: left=300, right=265, diff=35]","null","","-1","-1","300","265","35","","","","","","","","","","","","","","","","","","","","","","","","","","","","","","","","",""
"","confidence_first","html-keyboard-response","54","154669","0.0-20.0-2.0","1184.9000000059605","Confidence judgement (first response)","","","-1","-1","","","","left","80.5","80.5","50","true","33","","","","","","","","","","","","","","","","","","","","","","","","","","",""
"","fixation","html-keyboard-response","55","155890","0.0-21.0-0.0","null","fixation","null","","-1","-1","","","","","","","","","","","","","","","","","","","","","","","","","","","","","","","","","","","",""
"","numerosity","html-keyboard-response","56","156398","0.0-21.0-1.0","null","[Dot display: left=267, right=300, diff=33]","null","","-1","-1","267","300","33","","","","","","","","","","","","","","","","","","","","","","","","","","","","","","","","",""
"","confidence_first","html-keyboard-response","57","158619","0.0-21.0-2.0","2217.800000011921","Confidence judgement (first response)","","","-1","-1","","","","right","54.25","50","54.25","true","32","","","","","","","","","","","","","","","","","","","","","","","","","","",""
"","fixation","html-keyboard-response","58","159924","0.0-22.0-0.0","null","fixation","null","","-1","-1","","","","","","","","","","","","","","","","","","","","","","","","","","","","","","","","","","","",""
"","numerosity","html-keyboard-response","59","160431","0.0-22.0-1.0","null","[Dot display: left=300, right=268, diff=32]","null","","-1","-1","300","268","32","","","","","","","","","","","","","","","","","","","","","","","","","","","","","","","","",""
"","confidence_first","html-keyboard-response","60","161804","0.0-22.0-2.0","1371.9000000059605","Confidence judgement (first response)","","","-1","-1","","","","left","92","92","50","true","30","","","","","","","","","","","","","","","","","","","","","","","","","","",""
"","fixation","html-keyboard-response","61","163157","0.0-23.0-0.0","null","fixation","null","","-1","-1","","","","","","","","","","","","","","","","","","","","","","","","","","","","","","","","","","","",""
"","numerosity","html-keyboard-response","62","163665","0.0-23.0-1.0","null","[Dot display: left=300, right=270, diff=30]","null","","-1","-1","300","270","30","","","","","","","","","","","","","","","","","","","","","","","","","","","","","","","","",""
"","confidence_first","html-keyboard-response","63","165002","0.0-23.0-2.0","1333.7999999970198","Confidence judgement (first response)","","","-1","-1","","","","left","67","67","50","true","28","","","","","","","","","","","","","","","","","","","","","","","","","","",""
"","fixation","html-keyboard-response","64","166499","0.0-24.0-0.0","null","fixation","null","","-1","-1","","","","","","","","","","","","","","","","","","","","","","","","","","","","","","","","","","","",""
"","numerosity","html-keyboard-response","65","167007","0.0-24.0-1.0","null","[Dot display: left=272, right=300, diff=28]","null","","-1","-1","272","300","28","","","","","","","","","","","","","","","","","","","","","","","","","","","","","","","","",""
"","confidence_first","html-keyboard-response","66","168714","0.0-24.0-2.0","1703.7000000029802","Confidence judgement (first response)","","","-1","-1","","","","left","53.75","53.75","50","false","35","","","","","","","","","","","","","","","","","","","","","","","","","","",""
"","fixation","html-keyboard-response","67","170097","0.0-25.0-0.0","null","fixation","null","","-1","-1","","","","","","","","","","","","","","","","","","","","","","","","","","","","","","","","","","","",""
"","numerosity","html-keyboard-response","68","170605","0.0-25.0-1.0","null","[Dot display: left=265, right=300, diff=35]","null","","-1","-1","265","300","35","","","","","","","","","","","","","","","","","","","","","","","","","","","","","","","","",""
"","confidence_first","html-keyboard-response","69","171925","0.0-25.0-2.0","1317","Confidence judgement (first response)","","","-1","-1","","","","right","75","50","75","true","34","","","","","","","","","","","","","","","","","","","","","","","","","","",""
"","fixation","html-keyboard-response","70","173246","0.0-26.0-0.0","null","fixation","null","","-1","-1","","","","","","","","","","","","","","","","","","","","","","","","","","","","","","","","","","","",""
"","numerosity","html-keyboard-response","71","173755","0.0-26.0-1.0","null","[Dot display: left=300, right=266, diff=34]","null","","-1","-1","300","266","34","","","","","","","","","","","","","","","","","","","","","","","","","","","","","","","","",""
"","confidence_first","html-keyboard-response","72","175224","0.0-26.0-2.0","1465.5999999940395","Confidence judgement (first response)","","","-1","-1","","","","left","53.25","53.25","50","true","33","","","","","","","","","","","","","","","","","","","","","","","","","","",""
"","fixation","html-keyboard-response","73","176588","0.0-27.0-0.0","null","fixation","null","","-1","-1","","","","","","","","","","","","","","","","","","","","","","","","","","","","","","","","","","","",""
"","numerosity","html-keyboard-response","74","177096","0.0-27.0-1.0","null","[Dot display: left=267, right=300, diff=33]","null","","-1","-1","267","300","33","","","","","","","","","","","","","","","","","","","","","","","","","","","","","","","","",""
"","confidence_first","html-keyboard-response","75","178766","0.0-27.0-2.0","1667.7000000029802","Confidence judgement (first response)","","","-1","-1","","","","right","67.5","50","67.5","true","33","","","","","","","","","","","","","","","","","","","","","","","","","","",""
"","fixation","html-keyboard-response","76","180190","0.0-28.0-0.0","null","fixation","null","","-1","-1","","","","","","","","","","","","","","","","","","","","","","","","","","","","","","","","","","","",""
"","numerosity","html-keyboard-response","77","180698","0.0-28.0-1.0","null","[Dot display: left=267, right=300, diff=33]","null","","-1","-1","267","300","33","","","","","","","","","","","","","","","","","","","","","","","","","","","","","","","","",""
"","confidence_first","html-keyboard-response","78","182083","0.0-28.0-2.0","1381.9000000059605","Confidence judgement (first response)","","","-1","-1","","","","right","76.25","50","76.25","true","32","","","","","","","","","","","","","","","","","","","","","","","","","","",""
"","fixation","html-keyboard-response","79","183325","0.0-29.0-0.0","null","fixation","null","","-1","-1","","","","","","","","","","","","","","","","","","","","","","","","","","","","","","","","","","","",""
"","numerosity","html-keyboard-response","80","183834","0.0-29.0-1.0","null","[Dot display: left=300, right=268, diff=32]","null","","-1","-1","300","268","32","","","","","","","","","","","","","","","","","","","","","","","","","","","","","","","","",""
"","confidence_first","html-keyboard-response","81","186363","0.0-29.0-2.0","2526.2999999970198","Confidence judgement (first response)","","","-1","-1","","","","right","68.25","50","68.25","false","35","","","","","","","","","","","","","","","","","","","","","","","","","","",""
"","fixation","html-keyboard-response","82","187827","0.0-30.0-0.0","null","fixation","null","","-1","-1","","","","","","","","","","","","","","","","","","","","","","","","","","","","","","","","","","","",""
"","numerosity","html-keyboard-response","83","188334","0.0-30.0-1.0","null","[Dot display: left=300, right=265, diff=35]","null","","-1","-1","300","265","35","","","","","","","","","","","","","","","","","","","","","","","","","","","","","","","","",""
"","confidence_first","html-keyboard-response","84","189652","0.0-30.0-2.0","1315","Confidence judgement (first response)","","","-1","-1","","","","left","64","64","50","true","35","","","","","","","","","","","","","","","","","","","","","","","","","","",""
"","fixation","html-keyboard-response","85","191113","0.0-31.0-0.0","null","fixation","null","","-1","-1","","","","","","","","","","","","","","","","","","","","","","","","","","","","","","","","","","","",""
"","numerosity","html-keyboard-response","86","191620","0.0-31.0-1.0","null","[Dot display: left=300, right=265, diff=35]","null","","-1","-1","300","265","35","","","","","","","","","","","","","","","","","","","","","","","","","","","","","","","","",""
"","confidence_first","html-keyboard-response","87","192953","0.0-31.0-2.0","1330.1000000089407","Confidence judgement (first response)","","","-1","-1","","","","left","54.25","54.25","50","true","34","","","","","","","","","","","","","","","","","","","","","","","","","","",""
"","expInstructions","html-button-response","88","222529","0.0-32.0-0.0","29572","expInstruc","0","","","","","","","","","","","","","","","","","","","","","","","","","","","","","","","","","","","","","","",""
"","expInstructions","html-button-response","89","222981","0.0-32.0-0.1","448","expInstruc","0","","","","","","","","","","","","","","","","","","","","","","","","","","","","","","","","","","","","","","",""
"","expInstructions","html-button-response","90","223385","0.0-32.0-0.2","402","expInstruc","0","","","","","","","","","","","","","","","","","","","","","","","","","","","","","","","","","","","","","","",""
"","expInstructions","html-button-response","91","223786","0.0-32.0-0.3","399","expInstruc","0","","","","","","","","","","","","","","","","","","","","","","","","","","","","","","","","","","","","","","",""
"","expInstructions","html-button-response","92","224284","0.0-32.0-0.4","496","expInstruc","0","","","","","","","","","","","","","","","","","","","","","","","","","","","","","","","","","","","","","","",""
"","expInstructions","html-button-response","93","224888","0.0-32.0-0.5","602","expInstruc","0","","","","","","","","","","","","","","","","","","","","","","","","","","","","","","","","","","","","","","",""
"","expInstructions","html-button-response","94","225388","0.0-32.0-0.6","498","expInstruc","0","","","","","","","","","","","","","","","","","","","","","","","","","","","","","","","","","","","","","","",""
"","expInstructions","html-button-response","95","225808","0.0-32.0-0.7","418","expInstruc","0","","","","","","","","","","","","","","","","","","","","","","","","","","","","","","","","","","","","","","",""
"","expInstructions","html-button-response","96","226307","0.0-32.0-0.8","496","expInstruc","0","","","","","","","","","","","","","","","","","","","","","","","","","","","","","","","","","","","","","","",""
"","expInstructions","html-button-response","97","226682","0.0-32.0-0.9","373","expInstruc","0","","","","","","","","","","","","","","","","","","","","","","","","","","","","","","","","","","","","","","",""
"","expInstructions","html-button-response","98","227120","0.0-32.0-0.10","435","expInstruc","0","","","","","","","","","","","","","","","","","","","","","","","","","","","","","","","","","","","","","","",""
"","expInstructions","html-button-response","99","227525","0.0-32.0-0.11","403","expInstruc","0","","","","","","","","","","","","","","","","","","","","","","","","","","","","","","","","","","","","","","",""
"","expInstructions","html-button-response","100","228336","0.0-32.0-0.12","809","expInstruc","0","","","","","","","","","","","","","","","","","","","","","","","","","","","","","","","","","","","","","","",""
"","block_message","html-button-response","101","234137","0.0-33.0","5798","block message","0","","","","","","","","","","","","","1","","","","","","","","","","","","","","","","","","","","","","","","","",""
"","fixation","html-keyboard-response","102","235636","0.0-34.0-0.0","null","fixation","null","","-1","-1","","","","","","","","","","","","","","","","","","","","","","","","","","","","","","","","","","","",""
"","numerosity","html-keyboard-response","103","236143","0.0-34.0-1.0","null","[Dot display: left=300, right=266, diff=34]","null","","-1","-1","300","266","34","","","","","","","","","","","","","","","","","","","","","","","","","","","","","","","","",""
"","confidence_first","html-keyboard-response","104","237839","0.0-34.0-2.0","1693.2999999970198","Confidence judgement (first response)","","","-1","-1","","","","left","97.25","97.25","50","true","33","","","","","","","","","","","","","","","","","","","","","","","","","","",""
"","advice_choice","html-button-response","105","239073","0.0-34.0-3.0-0.0","1230","[advice choice Y,N]","1","","-1","-1","","","","","","","","","","","","","","","","","","","","","","","","","","","","","","","","","","","",""
"","blank_screen","html-keyboard-response","106","239875","0.0-34.0-3.0-2.0-0.0","null","blank","null","","-1","-1","","","","","","","","","","","","","","","","","","","","","","","","","","","","","","","","","","","",""
"","confidence_second","html-keyboard-response","107","241085","0.0-34.0-6.0","1206.2999999970198","Confidence judgment (second response)","","","-1","-1","","","","left","97.25","97.25","50","","","","","","","","","","","","","","","","","","","","","","","","","","","","",""
"","consolidated-trial-data","consolidated-trial-data","108","241087","0.0-35.0","null","consolidated-trial-data","null","","","","","","","","","","","","","","0","0","0","300","266","34","left","97.25","true","1693.2999999970198","1","no","none","left","97.25","nan","","1206.2999999970198","","","","","","","",""
"","fixation","html-keyboard-response","109","242516","0.0-36.0-0.0","null","fixation","null","","-1","-1","","","","","","","","","","","","","","","","","","","","","","","","","","","","","","","","","","","",""
"","numerosity","html-keyboard-response","110","243024","0.0-36.0-1.0","null","[Dot display: left=267, right=300, diff=33]","null","","-1","-1","267","300","33","","","","","","","","","","","","","","","","","","","","","","","","","","","","","","","","",""
"","confidence_first","html-keyboard-response","111","244682","0.0-36.0-2.0","1654.5999999940395","Confidence judgement (first response)","","","-1","-1","","","","left","88.75","88.75","50","false","36","","","","","","","","","","","","","","","","","","","","","","","","","","",""
"","no_advice_display","html-button-response","112","245697","0.0-36.0-5.0-0.0","1013","noAdvice","0","","-1","-1","","","","","","","","","","","","","","","","","","","","","","","","","","","","","","","","","","","",""
"","blank_screen","html-keyboard-response","113","246500","0.0-36.0-5.0-1.0","null","blank","null","","-1","-1","","","","","","","","","","","","","","","","","","","","","","","","","","","","","","","","","","","",""
"","confidence_second","html-keyboard-response","114","248241","0.0-36.0-6.0","1738.9000000059605","Confidence judgment (second response)","","","-1","-1","","","","left","83.75","83.75","50","","","","","","","","","","","","","","","","","","","","","","","","","","","","",""
"","consolidated-trial-data","consolidated-trial-data","115","248243","0.0-37.0","null","consolidated-trial-data","null","","","","","","","","","","","","","","0","1","1","267","300","33","left","88.75","false","1654.5999999940395","3","no","none","left","83.75","nan","","1738.9000000059605","","","","","","","",""
"","fixation","html-keyboard-response","116","249452","0.0-38.0-0.0","null","fixation","null","","-1","-1","","","","","","","","","","","","","","","","","","","","","","","","","","","","","","","","","","","",""
"","numerosity","html-keyboard-response","117","249960","0.0-38.0-1.0","null","[Dot display: left=264, right=300, diff=36]","null","","-1","-1","264","300","36","","","","","","","","","","","","","","","","","","","","","","","","","","","","","","","","",""
"","confidence_first","html-keyboard-response","118","251436","0.0-38.0-2.0","1473.1000000089407","Confidence judgement (first response)","","","-1","-1","","","","left","80.5","80.5","50","false","39","","","","","","","","","","","","","","","","","","","","","","","","","","",""
"","advice_choice","html-button-response","119","252801","0.0-38.0-3.0-0.0","1362","[advice choice Y,N]","0","","-1","-1","","","","","","","","","","","","","","","","","","","","","","","","","","","","","","","","","","","",""
"","show_advice","html-keyboard-response","120","253605","0.0-38.0-3.0-1.0-0.0","null","[advice: left]","null","","-1","-1","","","","","","","","","","","","","","","","","","","","","","","","","","","","","left","","","","","","",""
"","confidence_second","html-keyboard-response","121","255118","0.0-38.0-6.0","1511.7999999970198","Confidence judgment (second response)","","","-1","-1","","","","left","89.25","89.25","50","","","","","","","","","","","","","","","","","","","","","","","","","","","","",""
"","consolidated-trial-data","consolidated-trial-data","122","255121","0.0-39.0","null","consolidated-trial-data","null","","","","","","","","","","","","","","0","2","2","264","300","36","left","80.5","false","1473.1000000089407","1","yes","left","left","89.25","false","","1511.7999999970198","","","","","","","",""
"","fixation","html-keyboard-response","123","256456","0.0-40.0-0.0","null","fixation","null","","-1","-1","","","","","","","","","","","","","","","","","","","","","","","","","","","","","","","","","","","",""
"","numerosity","html-keyboard-response","124","256964","0.0-40.0-1.0","null","[Dot display: left=261, right=300, diff=39]","null","","-1","-1","261","300","39","","","","","","","","","","","","","","","","","","","","","","","","","","","","","","","","",""
"","confidence_first","html-keyboard-response","125","259130","0.0-40.0-2.0","2163.5999999940395","Confidence judgement (first response)","","","-1","-1","","","","right","66.75","50","66.75","true","38","","","","","","","","","","","","","","","","","","","","","","","","","","",""
"","advice_choice","html-button-response","126","260336","0.0-40.0-3.0-0.0","1203","[advice choice Y,N]","0","","-1","-1","","","","","","","","","","","","","","","","","","","","","","","","","","","","","","","","","","","",""
"","show_advice","html-keyboard-response","127","261140","0.0-40.0-3.0-1.0-0.0","null","[advice: right]","null","","-1","-1","","","","","","","","","","","","","","","","","","","","","","","","","","","","","right","","","","","","",""
"","confidence_second","html-keyboard-response","128","263116","0.0-40.0-6.0","1973.7999999970198","Confidence judgment (second response)","","","-1","-1","","","","right","77.75","50","77.75","","","","","","","","","","","","","","","","","","","","","","","","","","","","",""
"","consolidated-trial-data","consolidated-trial-data","129","263118","0.0-41.0","null","consolidated-trial-data","null","","","","","","","","","","","","","","0","3","3","261","300","39","right","66.75","true","2163.5999999940395","1","yes","right","right","77.75","true","","1973.7999999970198","","","","","","","",""
"","fixation","html-keyboard-response","130","264534","0.0-42.0-0.0","null","fixation","null","","-1","-1","","","","","","","","","","","","","","","","","","","","","","","","","","","","","","","","","","","",""
"","numerosity","html-keyboard-response","131","265042","0.0-42.0-1.0","null","[Dot display: left=262, right=300, diff=38]","null","","-1","-1","262","300","38","","","","","","","","","","","","","","","","","","","","","","","","","","","","","","","","",""
"","confidence_first","html-keyboard-response","132","266137","0.0-42.0-2.0","1091.5","Confidence judgement (first response)","","","-1","-1","","","","right","76.75","50","76.75","true","37","","","","","","","","","","","","","","","","","","","","","","","","","","",""
"","forced_advice_display","html-button-response","133","267292","0.0-42.0-4.0-0.0","1153","forcedAdvice","0","","-1","-1","","","","","","","","","","","","","","","","","","","","","","","","","","","","","","","","","","","",""
"","show_advice","html-keyboard-response","134","268095","0.0-42.0-4.0-1.0","null","[advice: right]","null","","-1","-1","","","","","","","","","","","","","","","","","","","","","","","","","","","","","right","","","","","","",""
"","confidence_second","html-keyboard-response","135","269429","0.0-42.0-6.0","1332.199999988079","Confidence judgment (second response)","","","-1","-1","","","","right","82.25","50","82.25","","","","","","","","","","","","","","","","","","","","","","","","","","","","",""
"","consolidated-trial-data","consolidated-trial-data","136","269432","0.0-43.0","null","consolidated-trial-data","null","","","","","","","","","","","","","","0","4","4","262","300","38","right","76.75","true","1091.5","2","yes","right","right","82.25","true","","1332.199999988079","","","","","","","",""
"","fixation","html-keyboard-response","137","270755","0.0-44.0-0.0","null","fixation","null","","-1","-1","","","","","","","","","","","","","","","","","","","","","","","","","","","","","","","","","","","",""
"","numerosity","html-keyboard-response","138","271261","0.0-44.0-1.0","null","[Dot display: left=300, right=263, diff=37]","null","","-1","-1","300","263","37","","","","","","","","","","","","","","","","","","","","","","","","","","","","","","","","",""
"","confidence_first","html-keyboard-response","139","272413","0.0-44.0-2.0","1149.4000000059605","Confidence judgement (first response)","","","-1","-1","","","","left","84","84","50","true","37","","","","","","","","","","","","","","","","","","","","","","","","","","",""
"","forced_advice_display","html-button-response","140","273523","0.0-44.0-4.0-0.0","1108","forcedAdvice","0","","-1","-1","","","","","","","","","","","","","","","","","","","","","","","","","","","","","","","","","","","",""
"","show_advice","html-keyboard-response","141","274326","0.0-44.0-4.0-1.0","null","[advice: left]","null","","-1","-1","","","","","","","","","","","","","","","","","","","","","","","","","","","","","left","","","","","","",""
"","confidence_second","html-keyboard-response","142","275866","0.0-44.0-6.0","1537.8999999910593","Confidence judgment (second response)","","","-1","-1","","","","left","84","84","50","","","","","","","","","","","","","","","","","","","","","","","","","","","","",""
"","consolidated-trial-data","consolidated-trial-data","143","275869","0.0-45.0","null","consolidated-trial-data","null","","","","","","","","","","","","","","0","5","5","300","263","37","left","84","true","1149.4000000059605","2","yes","left","left","84","true","","1537.8999999910593","","","","","","","",""
"","fixation","html-keyboard-response","144","277119","0.0-46.0-0.0","null","fixation","null","","-1","-1","","","","","","","","","","","","","","","","","","","","","","","","","","","","","","","","","","","",""
"","numerosity","html-keyboard-response","145","277627","0.0-46.0-1.0","null","[Dot display: left=263, right=300, diff=37]","null","","-1","-1","263","300","37","","","","","","","","","","","","","","","","","","","","","","","","","","","","","","","","",""
"","confidence_first","html-keyboard-response","146","279131","0.0-46.0-2.0","1500.8999999910593","Confidence judgement (first response)","","","-1","-1","","","","right","77","50","77","true","36","","","","","","","","","","","","","","","","","","","","","","","","","","",""
"","advice_choice","html-button-response","147","280196","0.0-46.0-3.0-0.0","1063","[advice choice Y,N]","0","","-1","-1","","","","","","","","","","","","","","","","","","","","","","","","","","","","","","","","","","","",""
"","show_advice","html-keyboard-response","148","280999","0.0-46.0-3.0-1.0-0.0","null","[advice: left]","null","","-1","-1","","","","","","","","","","","","","","","","","","","","","","","","","","","","","left","","","","","","",""
"","confidence_second","html-keyboard-response","149","283540","0.0-46.0-6.0","2538.5","Confidence judgment (second response)","","","-1","-1","","","","right","77","50","77","","","","","","","","","","","","","","","","","","","","","","","","","","","","",""
"","consolidated-trial-data","consolidated-trial-data","150","283543","0.0-47.0","null","consolidated-trial-data","null","","","","","","","","","","","","","","0","6","6","263","300","37","right","77","true","1500.8999999910593","1","yes","left","right","77","false","","2538.5","","","","","","","",""
"","fixation","html-keyboard-response","151","284938","0.0-48.0-0.0","null","fixation","null","","-1","-1","","","","","","","","","","","","","","","","","","","","","","","","","","","","","","","","","","","",""
"","numerosity","html-keyboard-response","152","285446","0.0-48.0-1.0","null","[Dot display: left=264, right=300, diff=36]","null","","-1","-1","264","300","36","","","","","","","","","","","","","","","","","","","","","","","","","","","","","","","","",""
"","confidence_first","html-keyboard-response","153","286580","0.0-48.0-2.0","1131.5","Confidence judgement (first response)","","","-1","-1","","","","right","74.25","50","74.25","true","36","","","","","","","","","","","","","","","","","","","","","","","","","","",""
"","no_advice_display","html-button-response","154","288188","0.0-48.0-5.0-0.0","1605","noAdvice","0","","-1","-1","","","","","","","","","","","","","","","","","","","","","","","","","","","","","","","","","","","",""
"","blank_screen","html-keyboard-response","155","288990","0.0-48.0-5.0-1.0","null","blank","null","","-1","-1","","","","","","","","","","","","","","","","","","","","","","","","","","","","","","","","","","","",""
"","confidence_second","html-keyboard-response","156","290575","0.0-48.0-6.0","1582.800000011921","Confidence judgment (second response)","","","-1","-1","","","","right","74.25","50","74.25","","","","","","","","","","","","","","","","","","","","","","","","","","","","",""
"","consolidated-trial-data","consolidated-trial-data","157","290578","0.0-49.0","null","consolidated-trial-data","null","","","","","","","","","","","","","","0","7","7","264","300","36","right","74.25","true","1131.5","3","yes","left","right","74.25","false","","1582.800000011921","","","","","","","",""
"","fixation","html-keyboard-response","158","292016","0.0-50.0-0.0","null","fixation","null","","-1","-1","","","","","","","","","","","","","","","","","","","","","","","","","","","","","","","","","","","",""
"","numerosity","html-keyboard-response","159","292523","0.0-50.0-1.0","null","[Dot display: left=300, right=264, diff=36]","null","","-1","-1","300","264","36","","","","","","","","","","","","","","","","","","","","","","","","","","","","","","","","",""
"","confidence_first","html-keyboard-response","160","294549","0.0-50.0-2.0","2022.9000000059605","Confidence judgement (first response)","","","-1","-1","","","","left","78.5","78.5","50","true","36","","","","","","","","","","","","","","","","","","","","","","","","","","",""
"","forced_advice_display","html-button-response","161","295791","0.0-50.0-4.0-0.0","1239","forcedAdvice","0","","-1","-1","","","","","","","","","","","","","","","","","","","","","","","","","","","","","","","","","","","",""
"","show_advice","html-keyboard-response","162","296594","0.0-50.0-4.0-1.0","null","[advice: left]","null","","-1","-1","","","","","","","","","","","","","","","","","","","","","","","","","","","","","left","","","","","","",""
"","confidence_second","html-keyboard-response","163","298433","0.0-50.0-6.0","1836.5","Confidence judgment (second response)","","","-1","-1","","","","left","96.75","96.75","50","","","","","","","","","","","","","","","","","","","","","","","","","","","","",""
"","consolidated-trial-data","consolidated-trial-data","164","298435","0.0-51.0","null","consolidated-trial-data","null","","","","","","","","","","","","","","0","8","8","300","264","36","left","78.5","true","2022.9000000059605","2","yes","left","left","96.75","true","","1836.5","","","","","","","",""
"","fixation","html-keyboard-response","165","299791","0.0-52.0-0.0","null","fixation","null","","-1","-1","","","","","","","","","","","","","","","","","","","","","","","","","","","","","","","","","","","",""
"","numerosity","html-keyboard-response","166","300299","0.0-52.0-1.0","null","[Dot display: left=264, right=300, diff=36]","null","","-1","-1","264","300","36","","","","","","","","","","","","","","","","","","","","","","","","","","","","","","","","",""
"","confidence_first","html-keyboard-response","167","301522","0.0-52.0-2.0","1220.1000000089407","Confidence judgement (first response)","","","-1","-1","","","","left","65.5","65.5","50","false","37","","","","","","","","","","","","","","","","","","","","","","","","","","",""
"","no_advice_display","html-button-response","168","302515","0.0-52.0-5.0-0.0","991","noAdvice","0","","-1","-1","","","","","","","","","","","","","","","","","","","","","","","","","","","","","","","","","","","",""
"","blank_screen","html-keyboard-response","169","303317","0.0-52.0-5.0-1.0","null","blank","null","","-1","-1","","","","","","","","","","","","","","","","","","","","","","","","","","","","","","","","","","","",""
"","confidence_second","html-keyboard-response","170","304103","0.0-52.0-6.0","784.0999999940395","Confidence judgment (second response)","","","-1","-1","","","","left","65.5","65.5","50","","","","","","","","","","","","","","","","","","","","","","","","","","","","",""
"","consolidated-trial-data","consolidated-trial-data","171","304106","0.0-53.0","null","consolidated-trial-data","null","","","","","","","","","","","","","","0","9","9","264","300","36","left","65.5","false","1220.1000000089407","3","yes","left","left","65.5","false","","784.0999999940395","","","","","","","",""
"","fixation","html-keyboard-response","172","305311","0.0-54.0-0.0","null","fixation","null","","-1","-1","","","","","","","","","","","","","","","","","","","","","","","","","","","","","","","","","","","",""
"","numerosity","html-keyboard-response","173","305819","0.0-54.0-1.0","null","[Dot display: left=300, right=263, diff=37]","null","","-1","-1","300","263","37","","","","","","","","","","","","","","","","","","","","","","","","","","","","","","","","",""
"","confidence_first","html-keyboard-response","174","307516","0.0-54.0-2.0","1693.9000000059605","Confidence judgement (first response)","","","-1","-1","","","","left","77.75","77.75","50","true","37","","","","","","","","","","","","","","","","","","","","","","","","","","",""
"","no_advice_display","html-button-response","175","308348","0.0-54.0-5.0-0.0","831","noAdvice","0","","-1","-1","","","","","","","","","","","","","","","","","","","","","","","","","","","","","","","","","","","",""
"","blank_screen","html-keyboard-response","176","309152","0.0-54.0-5.0-1.0","null","blank","null","","-1","-1","","","","","","","","","","","","","","","","","","","","","","","","","","","","","","","","","","","",""
"","confidence_second","html-keyboard-response","177","309798","0.0-54.0-6.0","644.7000000029802","Confidence judgment (second response)","","","-1","-1","","","","left","77.75","77.75","50","","","","","","","","","","","","","","","","","","","","","","","","","","","","",""
"","consolidated-trial-data","consolidated-trial-data","178","309800","0.0-55.0","null","consolidated-trial-data","null","","","","","","","","","","","","","","0","10","10","300","263","37","left","77.75","true","1693.9000000059605","3","yes","left","left","77.75","true","","644.7000000029802","","","","","","","",""
"","fixation","html-keyboard-response","179","311127","0.0-56.0-0.0","null","fixation","null","","-1","-1","","","","","","","","","","","","","","","","","","","","","","","","","","","","","","","","","","","",""
"","numerosity","html-keyboard-response","180","311635","0.0-56.0-1.0","null","[Dot display: left=300, right=263, diff=37]","null","","-1","-1","300","263","37","","","","","","","","","","","","","","","","","","","","","","","","","","","","","","","","",""
"","confidence_first","html-keyboard-response","181","312985","0.0-56.0-2.0","1347.1000000089407","Confidence judgement (first response)","","","-1","-1","","","","left","77.75","77.75","50","true","37","","","","","","","","","","","","","","","","","","","","","","","","","","",""
"","forced_advice_display","html-button-response","182","313983","0.0-56.0-4.0-0.0","996","forcedAdvice","0","","-1","-1","","","","","","","","","","","","","","","","","","","","","","","","","","","","","","","","","","","",""
"","show_advice","html-keyboard-response","183","314785","0.0-56.0-4.0-1.0","null","[advice: left]","null","","-1","-1","","","","","","","","","","","","","","","","","","","","","","","","","","","","","left","","","","","","",""
"","confidence_second","html-keyboard-response","184","315705","0.0-56.0-6.0","917.7999999970198","Confidence judgment (second response)","","","-1","-1","","","","left","77.75","77.75","50","","","","","","","","","","","","","","","","","","","","","","","","","","","","",""
"","consolidated-trial-data","consolidated-trial-data","185","315707","0.0-57.0","null","consolidated-trial-data","null","","","","","","","","","","","","","","0","11","11","300","263","37","left","77.75","true","1347.1000000089407","2","yes","left","left","77.75","true","","917.7999999970198","","","","","","","",""
"","fixation","html-keyboard-response","186","317094","0.0-58.0-0.0","null","fixation","null","","-1","-1","","","","","","","","","","","","","","","","","","","","","","","","","","","","","","","","","","","",""
"","numerosity","html-keyboard-response","187","317600","0.0-58.0-1.0","null","[Dot display: left=300, right=263, diff=37]","null","","-1","-1","300","263","37","","","","","","","","","","","","","","","","","","","","","","","","","","","","","","","","",""
"","confidence_first","html-keyboard-response","188","318796","0.0-58.0-2.0","1193.2999999970198","Confidence judgement (first response)","","","-1","-1","","","","left","58.25","58.25","50","true","36","","","","","","","","","","","","","","","","","","","","","","","","","","",""
"","advice_choice","html-button-response","189","322141","0.0-58.0-3.0-0.0","3342","[advice choice Y,N]","0","","-1","-1","","","","","","","","","","","","","","","","","","","","","","","","","","","","","","","","","","","",""
"","show_advice","html-keyboard-response","190","322944","0.0-58.0-3.0-1.0-0.0","null","[advice: left]","null","","-1","-1","","","","","","","","","","","","","","","","","","","","","","","","","","","","","left","","","","","","",""
"","confidence_second","html-keyboard-response","191","324413","0.0-58.0-6.0","1466.4000000059605","Confidence judgment (second response)","","","-1","-1","","","","left","73.75","73.75","50","","","","","","","","","","","","","","","","","","","","","","","","","","","","",""
"","consolidated-trial-data","consolidated-trial-data","192","324415","0.0-59.0","null","consolidated-trial-data","null","","","","","","","","","","","","","","0","12","12","300","263","37","left","58.25","true","1193.2999999970198","1","yes","left","left","73.75","true","","1466.4000000059605","","","","","","","",""
"","fixation","html-keyboard-response","193","325742","0.0-60.0-0.0","null","fixation","null","","-1","-1","","","","","","","","","","","","","","","","","","","","","","","","","","","","","","","","","","","",""
"","numerosity","html-keyboard-response","194","326251","0.0-60.0-1.0","null","[Dot display: left=264, right=300, diff=36]","null","","-1","-1","264","300","36","","","","","","","","","","","","","","","","","","","","","","","","","","","","","","","","",""
"","confidence_first","html-keyboard-response","195","327982","0.0-60.0-2.0","1728.2999999970198","Confidence judgement (first response)","","","-1","-1","","","","right","84","50","84","true","36","","","","","","","","","","","","","","","","","","","","","","","","","","",""
"","forced_advice_display","html-button-response","196","329359","0.0-60.0-4.0-0.0","1374","forcedAdvice","0","","-1","-1","","","","","","","","","","","","","","","","","","","","","","","","","","","","","","","","","","","",""
"","show_advice","html-keyboard-response","197","330163","0.0-60.0-4.0-1.0","null","[advice: right]","null","","-1","-1","","","","","","","","","","","","","","","","","","","","","","","","","","","","","right","","","","","","",""
"","confidence_second","html-keyboard-response","198","332199","0.0-60.0-6.0","2034.0999999940395","Confidence judgment (second response)","","","-1","-1","","","","right","66.75","50","66.75","","","","","","","","","","","","","","","","","","","","","","","","","","","","",""
"","consolidated-trial-data","consolidated-trial-data","199","332202","0.0-61.0","null","consolidated-trial-data","null","","","","","","","","","","","","","","0","13","13","264","300","36","right","84","true","1728.2999999970198","2","yes","right","right","66.75","true","","2034.0999999940395","","","","","","","",""
"","fixation","html-keyboard-response","200","333429","0.0-62.0-0.0","null","fixation","null","","-1","-1","","","","","","","","","","","","","","","","","","","","","","","","","","","","","","","","","","","",""
"","numerosity","html-keyboard-response","201","333937","0.0-62.0-1.0","null","[Dot display: left=264, right=300, diff=36]","null","","-1","-1","264","300","36","","","","","","","","","","","","","","","","","","","","","","","","","","","","","","","","",""
"","confidence_first","html-keyboard-response","202","335096","0.0-62.0-2.0","1155.9000000059605","Confidence judgement (first response)","","","-1","-1","","","","right","81.75","50","81.75","true","36","","","","","","","","","","","","","","","","","","","","","","","","","","",""
"","no_advice_display","html-button-response","203","339262","0.0-62.0-5.0-0.0","4164","noAdvice","0","","-1","-1","","","","","","","","","","","","","","","","","","","","","","","","","","","","","","","","","","","",""
"","blank_screen","html-keyboard-response","204","340063","0.0-62.0-5.0-1.0","null","blank","null","","-1","-1","","","","","","","","","","","","","","","","","","","","","","","","","","","","","","","","","","","",""
"","confidence_second","html-keyboard-response","205","341920","0.0-62.0-6.0","1856.6000000089407","Confidence judgment (second response)","","","-1","-1","","","","left","58.75","58.75","50","","","","","","","","","","","","","","","","","","","","","","","","","","","","",""
"","consolidated-trial-data","consolidated-trial-data","206","341922","0.0-63.0","null","consolidated-trial-data","null","","","","","","","","","","","","","","0","14","14","264","300","36","right","81.75","true","1155.9000000059605","3","yes","right","left","58.75","true","","1856.6000000089407","","","","","","","",""
"","block_message","html-button-response","207","345459","0.0-64.0","3534","block message","0","","","","","","","","","","","","","2","","","","","","","","","","","","","","","","","","","","","","","","","",""
"","fixation","html-keyboard-response","208","346785","0.0-65.0-0.0","null","fixation","null","","-1","-1","","","","","","","","","","","","","","","","","","","","","","","","","","","","","","","","","","","",""
"","numerosity","html-keyboard-response","209","347291","0.0-65.0-1.0","null","[Dot display: left=264, right=300, diff=36]","null","","-1","-1","264","300","36","","","","","","","","","","","","","","","","","","","","","","","","","","","","","","","","",""
"","confidence_first","html-keyboard-response","210","348739","0.0-65.0-2.0","1444.699999988079","Confidence judgement (first response)","","","-1","-1","","","","left","82.5","82.5","50","false","37","","","","","","","","","","","","","","","","","","","","","","","","","","",""
"","advice_choice","html-button-response","211","350418","0.0-65.0-3.0-0.0","1676","[advice choice Y,N]","1","","-1","-1","","","","","","","","","","","","","","","","","","","","","","","","","","","","","","","","","","","",""
"","blank_screen","html-keyboard-response","212","351222","0.0-65.0-3.0-2.0-0.0","null","blank","null","","-1","-1","","","","","","","","","","","","","","","","","","","","","","","","","","","","","","","","","","","",""
"","confidence_second","html-keyboard-response","213","352465","0.0-65.0-6.0","1241.2999999970198","Confidence judgment (second response)","","","-1","-1","","","","left","82.5","82.5","50","","","","","","","","","","","","","","","","","","","","","","","","","","","","",""
"","consolidated-trial-data","consolidated-trial-data","214","352468","0.0-66.0","null","consolidated-trial-data","null","","","","","","","","","","","","","","1","0","15","264","300","36","left","82.5","false","1444.699999988079","1","no","right","left","82.5","true","","1241.2999999970198","","","","","","","",""
"","fixation","html-keyboard-response","215","353964","0.0-67.0-0.0","null","fixation","null","","-1","-1","","","","","","","","","","","","","","","","","","","","","","","","","","","","","","","","","","","",""
"","numerosity","html-keyboard-response","216","354473","0.0-67.0-1.0","null","[Dot display: left=263, right=300, diff=37]","null","","-1","-1","263","300","37","","","","","","","","","","","","","","","","","","","","","","","","","","","","","","","","",""
"","confidence_first","html-keyboard-response","217","356013","0.0-67.0-2.0","1536.5","Confidence judgement (first response)","","","-1","-1","","","","right","88.25","50","88.25","true","37","","","","","","","","","","","","","","","","","","","","","","","","","","",""
"","no_advice_display","html-button-response","218","357051","0.0-67.0-5.0-0.0","1036","noAdvice","0","","-1","-1","","","","","","","","","","","","","","","","","","","","","","","","","","","","","","","","","","","",""
"","blank_screen","html-keyboard-response","219","357854","0.0-67.0-5.0-1.0","null","blank","null","","-1","-1","","","","","","","","","","","","","","","","","","","","","","","","","","","","","","","","","","","",""
"","confidence_second","html-keyboard-response","220","358644","0.0-67.0-6.0","787.7999999970198","Confidence judgment (second response)","","","-1","-1","","","","right","88.25","50","88.25","","","","","","","","","","","","","","","","","","","","","","","","","","","","",""
"","consolidated-trial-data","consolidated-trial-data","221","358647","0.0-68.0","null","consolidated-trial-data","null","","","","","","","","","","","","","","1","1","16","263","300","37","right","88.25","true","1536.5","3","no","right","right","88.25","true","","787.7999999970198","","","","","","","",""
"","fixation","html-keyboard-response","222","360026","0.0-69.0-0.0","null","fixation","null","","-1","-1","","","","","","","","","","","","","","","","","","","","","","","","","","","","","","","","","","","",""
"","numerosity","html-keyboard-response","223","360534","0.0-69.0-1.0","null","[Dot display: left=263, right=300, diff=37]","null","","-1","-1","263","300","37","","","","","","","","","","","","","","","","","","","","","","","","","","","","","","","","",""
"","confidence_first","html-keyboard-response","224","361735","0.0-69.0-2.0","1198.7000000029802","Confidence judgement (first response)","","","-1","-1","","","","left","71.75","71.75","50","false","38","","","","","","","","","","","","","","","","","","","","","","","","","","",""
"","advice_choice","html-button-response","225","362887","0.0-69.0-3.0-0.0","1149","[advice choice Y,N]","0","","-1","-1","","","","","","","","","","","","","","","","","","","","","","","","","","","","","","","","","","","",""
"","show_advice","html-keyboard-response","226","363691","0.0-69.0-3.0-1.0-0.0","null","[advice: right]","null","","-1","-1","","","","","","","","","","","","","","","","","","","","","","","","","","","","","right","","","","","","",""
"","confidence_second","html-keyboard-response","227","364778","0.0-69.0-6.0","1084.9000000059605","Confidence judgment (second response)","","","-1","-1","","","","left","71.75","71.75","50","","","","","","","","","","","","","","","","","","","","","","","","","","","","",""
"","consolidated-trial-data","consolidated-trial-data","228","364781","0.0-70.0","null","consolidated-trial-data","null","","","","","","","","","","","","","","1","2","17","263","300","37","left","71.75","false","1198.7000000029802","1","yes","right","left","71.75","true","","1084.9000000059605","","","","","","","",""
"","fixation","html-keyboard-response","229","366077","0.0-71.0-0.0","null","fixation","null","","-1","-1","","","","","","","","","","","","","","","","","","","","","","","","","","","","","","","","","","","",""
"","numerosity","html-keyboard-response","230","366582","0.0-71.0-1.0","null","[Dot display: left=300, right=262, diff=38]","null","","-1","-1","300","262","38","","","","","","","","","","","","","","","","","","","","","","","","","","","","","","","","",""
"","confidence_first","html-keyboard-response","231","367963","0.0-71.0-2.0","1378.2000000029802","Confidence judgement (first response)","","","-1","-1","","","","left","84","84","50","true","38","","","","","","","","","","","","","","","","","","","","","","","","","","",""
"","advice_choice","html-button-response","232","369020","0.0-71.0-3.0-0.0","1055","[advice choice Y,N]","0","","-1","-1","","","","","","","","","","","","","","","","","","","","","","","","","","","","","","","","","","","",""
"","show_advice","html-keyboard-response","233","369823","0.0-71.0-3.0-1.0-0.0","null","[advice: left]","null","","-1","-1","","","","","","","","","","","","","","","","","","","","","","","","","","","","","left","","","","","","",""
"","confidence_second","html-keyboard-response","234","370916","0.0-71.0-6.0","1090.7000000029802","Confidence judgment (second response)","","","-1","-1","","","","left","84","84","50","","","","","","","","","","","","","","","","","","","","","","","","","","","","",""
"","consolidated-trial-data","consolidated-trial-data","235","370919","0.0-72.0","null","consolidated-trial-data","null","","","","","","","","","","","","","","1","3","18","300","262","38","left","84","true","1378.2000000029802","1","yes","left","left","84","true","","1090.7000000029802","","","","","","","",""
"","fixation","html-keyboard-response","236","372318","0.0-73.0-0.0","null","fixation","null","","-1","-1","","","","","","","","","","","","","","","","","","","","","","","","","","","","","","","","","","","",""
"","numerosity","html-keyboard-response","237","372825","0.0-73.0-1.0","null","[Dot display: left=262, right=300, diff=38]","null","","-1","-1","262","300","38","","","","","","","","","","","","","","","","","","","","","","","","","","","","","","","","",""
"","confidence_first","html-keyboard-response","238","374246","0.0-73.0-2.0","1418.699999988079","Confidence judgement (first response)","","","-1","-1","","","","right","69","50","69","true","38","","","","","","","","","","","","","","","","","","","","","","","","","","",""
"","forced_advice_display","html-button-response","239","375462","0.0-73.0-4.0-0.0","1213","forcedAdvice","0","","-1","-1","","","","","","","","","","","","","","","","","","","","","","","","","","","","","","","","","","","",""
"","show_advice","html-keyboard-response","240","376265","0.0-73.0-4.0-1.0","null","[advice: right]","null","","-1","-1","","","","","","","","","","","","","","","","","","","","","","","","","","","","","right","","","","","","",""
"","confidence_second","html-keyboard-response","241","377420","0.0-73.0-6.0","1153.5","Confidence judgment (second response)","","","-1","-1","","","","right","69","50","69","","","","","","","","","","","","","","","","","","","","","","","","","","","","",""
"","consolidated-trial-data","consolidated-trial-data","242","377423","0.0-74.0","null","consolidated-trial-data","null","","","","","","","","","","","","","","1","4","19","262","300","38","right","69","true","1418.699999988079","2","yes","right","right","69","true","","1153.5","","","","","","","",""
"","fixation","html-keyboard-response","243","378838","0.0-75.0-0.0","null","fixation","null","","-1","-1","","","","","","","","","","","","","","","","","","","","","","","","","","","","","","","","","","","",""
"","numerosity","html-keyboard-response","244","379344","0.0-75.0-1.0","null","[Dot display: left=262, right=300, diff=38]","null","","-1","-1","262","300","38","","","","","","","","","","","","","","","","","","","","","","","","","","","","","","","","",""
"","confidence_first","html-keyboard-response","245","381106","0.0-75.0-2.0","1759","Confidence judgement (first response)","","","-1","-1","","","","left","90","90","50","false","39","","","","","","","","","","","","","","","","","","","","","","","","","","",""
"","forced_advice_display","html-button-response","246","382346","0.0-75.0-4.0-0.0","1238","forcedAdvice","0","","-1","-1","","","","","","","","","","","","","","","","","","","","","","","","","","","","","","","","","","","",""
"","show_advice","html-keyboard-response","247","383149","0.0-75.0-4.0-1.0","null","[advice: left]","null","","-1","-1","","","","","","","","","","","","","","","","","","","","","","","","","","","","","left","","","","","","",""
"","confidence_second","html-keyboard-response","248","384763","0.0-75.0-6.0","1612","Confidence judgment (second response)","","","-1","-1","","","","left","90","90","50","","","","","","","","","","","","","","","","","","","","","","","","","","","","",""
"","consolidated-trial-data","consolidated-trial-data","249","384766","0.0-76.0","null","consolidated-trial-data","null","","","","","","","","","","","","","","1","5","20","262","300","38","left","90","false","1759","2","yes","left","left","90","false","","1612","","","","","","","",""
"","fixation","html-keyboard-response","250","385972","0.0-77.0-0.0","null","fixation","null","","-1","-1","","","","","","","","","","","","","","","","","","","","","","","","","","","","","","","","","","","",""
"","numerosity","html-keyboard-response","251","386479","0.0-77.0-1.0","null","[Dot display: left=300, right=261, diff=39]","null","","-1","-1","300","261","39","","","","","","","","","","","","","","","","","","","","","","","","","","","","","","","","",""
"","confidence_first","html-keyboard-response","252","388434","0.0-77.0-2.0","1952.5","Confidence judgement (first response)","","","-1","-1","","","","left","97.25","97.25","50","true","39","","","","","","","","","","","","","","","","","","","","","","","","","","",""
"","advice_choice","html-button-response","253","389395","0.0-77.0-3.0-0.0","959","[advice choice Y,N]","0","","-1","-1","","","","","","","","","","","","","","","","","","","","","","","","","","","","","","","","","","","",""
"","show_advice","html-keyboard-response","254","390198","0.0-77.0-3.0-1.0-0.0","null","[advice: left]","null","","-1","-1","","","","","","","","","","","","","","","","","","","","","","","","","","","","","left","","","","","","",""
"","confidence_second","html-keyboard-response","255","391063","0.0-77.0-6.0","862.5","Confidence judgment (second response)","","","-1","-1","","","","left","97.25","97.25","50","","","","","","","","","","","","","","","","","","","","","","","","","","","","",""
"","consolidated-trial-data","consolidated-trial-data","256","391065","0.0-78.0","null","consolidated-trial-data","null","","","","","","","","","","","","","","1","6","21","300","261","39","left","97.25","true","1952.5","1","yes","left","left","97.25","true","","862.5","","","","","","","",""
"","fixation","html-keyboard-response","257","392393","0.0-79.0-0.0","null","fixation","null","","-1","-1","","","","","","","","","","","","","","","","","","","","","","","","","","","","","","","","","","","",""
"","numerosity","html-keyboard-response","258","392900","0.0-79.0-1.0","null","[Dot display: left=261, right=300, diff=39]","null","","-1","-1","261","300","39","","","","","","","","","","","","","","","","","","","","","","","","","","","","","","","","",""
"","confidence_first","html-keyboard-response","259","395140","0.0-79.0-2.0","2237.4000000059605","Confidence judgement (first response)","","","-1","-1","","","","right","93.5","50","93.5","true","38","","","","","","","","","","","","","","","","","","","","","","","","","","",""
"","no_advice_display","html-button-response","260","396637","0.0-79.0-5.0-0.0","1495","noAdvice","0","","-1","-1","","","","","","","","","","","","","","","","","","","","","","","","","","","","","","","","","","","",""
"","blank_screen","html-keyboard-response","261","397440","0.0-79.0-5.0-1.0","null","blank","null","","-1","-1","","","","","","","","","","","","","","","","","","","","","","","","","","","","","","","","","","","",""
"","confidence_second","html-keyboard-response","262","398596","0.0-79.0-6.0","1154.3999999910593","Confidence judgment (second response)","","","-1","-1","","","","right","93.5","50","93.5","","","","","","","","","","","","","","","","","","","","","","","","","","","","",""
"","consolidated-trial-data","consolidated-trial-data","263","398599","0.0-80.0","null","consolidated-trial-data","null","","","","","","","","","","","","","","1","7","22","261","300","39","right","93.5","true","2237.4000000059605","3","yes","left","right","93.5","false","","1154.3999999910593","","","","","","","",""
"","fixation","html-keyboard-response","264","399987","0.0-81.0-0.0","null","fixation","null","","-1","-1","","","","","","","","","","","","","","","","","","","","","","","","","","","","","","","","","","","",""
"","numerosity","html-keyboard-response","265","400494","0.0-81.0-1.0","null","[Dot display: left=262, right=300, diff=38]","null","","-1","-1","262","300","38","","","","","","","","","","","","","","","","","","","","","","","","","","","","","","","","",""
"","confidence_first","html-keyboard-response","266","401572","0.0-81.0-2.0","1075.8999999910593","Confidence judgement (first response)","","","-1","-1","","","","right","77.25","50","77.25","true","38","","","","","","","","","","","","","","","","","","","","","","","","","","",""
"","forced_advice_display","html-button-response","267","402489","0.0-81.0-4.0-0.0","915","forcedAdvice","0","","-1","-1","","","","","","","","","","","","","","","","","","","","","","","","","","","","","","","","","","","",""
"","show_advice","html-keyboard-response","268","403293","0.0-81.0-4.0-1.0","null","[advice: right]","null","","-1","-1","","","","","","","","","","","","","","","","","","","","","","","","","","","","","right","","","","","","",""
"","confidence_second","html-keyboard-response","269","404108","0.0-81.0-6.0","813.5","Confidence judgment (second response)","","","-1","-1","","","","right","77.25","50","77.25","","","","","","","","","","","","","","","","","","","","","","","","","","","","",""
"","consolidated-trial-data","consolidated-trial-data","270","404111","0.0-82.0","null","consolidated-trial-data","null","","","","","","","","","","","","","","1","8","23","262","300","38","right","77.25","true","1075.8999999910593","2","yes","right","right","77.25","true","","813.5","","","","","","","",""
"","fixation","html-keyboard-response","271","405609","0.0-83.0-0.0","null","fixation","null","","-1","-1","","","","","","","","","","","","","","","","","","","","","","","","","","","","","","","","","","","",""
"","numerosity","html-keyboard-response","272","406117","0.0-83.0-1.0","null","[Dot display: left=262, right=300, diff=38]","null","","-1","-1","262","300","38","","","","","","","","","","","","","","","","","","","","","","","","","","","","","","","","",""
"","confidence_first","html-keyboard-response","273","407813","0.0-83.0-2.0","1692.9000000059605","Confidence judgement (first response)","","","-1","-1","","","","left","60.5","60.5","50","false","39","","","","","","","","","","","","","","","","","","","","","","","","","","",""
"","no_advice_display","html-button-response","274","408591","0.0-83.0-5.0-0.0","775","noAdvice","0","","-1","-1","","","","","","","","","","","","","","","","","","","","","","","","","","","","","","","","","","","",""
"","blank_screen","html-keyboard-response","275","409393","0.0-83.0-5.0-1.0","null","blank","null","","-1","-1","","","","","","","","","","","","","","","","","","","","","","","","","","","","","","","","","","","",""
"","confidence_second","html-keyboard-response","276","410338","0.0-83.0-6.0","942.3999999910593","Confidence judgment (second response)","","","-1","-1","","","","left","60.5","60.5","50","","","","","","","","","","","","","","","","","","","","","","","","","","","","",""
"","consolidated-trial-data","consolidated-trial-data","277","410340","0.0-84.0","null","consolidated-trial-data","null","","","","","","","","","","","","","","1","9","24","262","300","38","left","60.5","false","1692.9000000059605","3","yes","right","left","60.5","true","","942.3999999910593","","","","","","","",""
"","fixation","html-keyboard-response","278","411758","0.0-85.0-0.0","null","fixation","null","","-1","-1","","","","","","","","","","","","","","","","","","","","","","","","","","","","","","","","","","","",""
"","numerosity","html-keyboard-response","279","412265","0.0-85.0-1.0","null","[Dot display: left=300, right=261, diff=39]","null","","-1","-1","300","261","39","","","","","","","","","","","","","","","","","","","","","","","","","","","","","","","","",""
"","confidence_first","html-keyboard-response","280","413630","0.0-85.0-2.0","1361","Confidence judgement (first response)","","","-1","-1","","","","left","51","51","50","true","39","","","","","","","","","","","","","","","","","","","","","","","","","","",""
"","no_advice_display","html-button-response","281","414881","0.0-85.0-5.0-0.0","1249","noAdvice","0","","-1","-1","","","","","","","","","","","","","","","","","","","","","","","","","","","","","","","","","","","",""
"","blank_screen","html-keyboard-response","282","415684","0.0-85.0-5.0-1.0","null","blank","null","","-1","-1","","","","","","","","","","","","","","","","","","","","","","","","","","","","","","","","","","","",""
"","confidence_second","html-keyboard-response","283","416595","0.0-85.0-6.0","908.6000000089407","Confidence judgment (second response)","","","-1","-1","","","","left","51","51","50","","","","","","","","","","","","","","","","","","","","","","","","","","","","",""
"","consolidated-trial-data","consolidated-trial-data","284","416598","0.0-86.0","null","consolidated-trial-data","null","","","","","","","","","","","","","","1","10","25","300","261","39","left","51","true","1361","3","yes","right","left","51","false","","908.6000000089407","","","","","","","",""
"","fixation","html-keyboard-response","285","418050","0.0-87.0-0.0","null","fixation","null","","-1","-1","","","","","","","","","","","","","","","","","","","","","","","","","","","","","","","","","","","",""
"","numerosity","html-keyboard-response","286","418557","0.0-87.0-1.0","null","[Dot display: left=261, right=300, diff=39]","null","","-1","-1","261","300","39","","","","","","","","","","","","","","","","","","","","","","","","","","","","","","","","",""
"","confidence_first","html-keyboard-response","287","421258","0.0-87.0-2.0","2698.5","Confidence judgement (first response)","","","-1","-1","","","","right","79","50","79","true","39","","","","","","","","","","","","","","","","","","","","","","","","","","",""
"","forced_advice_display","html-button-response","288","422151","0.0-87.0-4.0-0.0","891","forcedAdvice","0","","-1","-1","","","","","","","","","","","","","","","","","","","","","","","","","","","","","","","","","","","",""
"","show_advice","html-keyboard-response","289","422955","0.0-87.0-4.0-1.0","null","[advice: right]","null","","-1","-1","","","","","","","","","","","","","","","","","","","","","","","","","","","","","right","","","","","","",""
"","confidence_second","html-keyboard-response","290","423683","0.0-87.0-6.0","726.0999999940395","Confidence judgment (second response)","","","-1","-1","","","","right","79","50","79","","","","","","","","","","","","","","","","","","","","","","","","","","","","",""
"","consolidated-trial-data","consolidated-trial-data","291","423685","0.0-88.0","null","consolidated-trial-data","null","","","","","","","","","","","","","","1","11","26","261","300","39","right","79","true","2698.5","2","yes","right","right","79","true","","726.0999999940395","","","","","","","",""
"","fixation","html-keyboard-response","292","425160","0.0-89.0-0.0","null","fixation","null","","-1","-1","","","","","","","","","","","","","","","","","","","","","","","","","","","","","","","","","","","",""
"","numerosity","html-keyboard-response","293","425668","0.0-89.0-1.0","null","[Dot display: left=300, right=261, diff=39]","null","","-1","-1","300","261","39","","","","","","","","","","","","","","","","","","","","","","","","","","","","","","","","",""
"","confidence_first","html-keyboard-response","294","426676","0.0-89.0-2.0","1005","Confidence judgement (first response)","","","-1","-1","","","","left","72.25","72.25","50","true","38","","","","","","","","","","","","","","","","","","","","","","","","","","",""
"","advice_choice","html-button-response","295","427541","0.0-89.0-3.0-0.0","862","[advice choice Y,N]","1","","-1","-1","","","","","","","","","","","","","","","","","","","","","","","","","","","","","","","","","","","",""
"","blank_screen","html-keyboard-response","296","428343","0.0-89.0-3.0-2.0-0.0","null","blank","null","","-1","-1","","","","","","","","","","","","","","","","","","","","","","","","","","","","","","","","","","","",""
"","confidence_second","html-keyboard-response","297","429012","0.0-89.0-6.0","666.9000000059605","Confidence judgment (second response)","","","-1","-1","","","","left","72.25","72.25","50","","","","","","","","","","","","","","","","","","","","","","","","","","","","",""
"","consolidated-trial-data","consolidated-trial-data","298","429015","0.0-90.0","null","consolidated-trial-data","null","","","","","","","","","","","","","","1","12","27","300","261","39","left","72.25","true","1005","1","no","right","left","72.25","false","","666.9000000059605","","","","","","","",""
"","fixation","html-keyboard-response","299","430238","0.0-91.0-0.0","null","fixation","null","","-1","-1","","","","","","","","","","","","","","","","","","","","","","","","","","","","","","","","","","","",""
"","numerosity","html-keyboard-response","300","430745","0.0-91.0-1.0","null","[Dot display: left=262, right=300, diff=38]","null","","-1","-1","262","300","38","","","","","","","","","","","","","","","","","","","","","","","","","","","","","","","","",""
"","confidence_first","html-keyboard-response","301","432064","0.0-91.0-2.0","1317","Confidence judgement (first response)","","","-1","-1","","","","right","72.75","50","72.75","true","38","","","","","","","","","","","","","","","","","","","","","","","","","","",""
"","forced_advice_display","html-button-response","302","432996","0.0-91.0-4.0-0.0","929","forcedAdvice","0","","-1","-1","","","","","","","","","","","","","","","","","","","","","","","","","","","","","","","","","","","",""
"","show_advice","html-keyboard-response","303","433799","0.0-91.0-4.0-1.0","null","[advice: right]","null","","-1","-1","","","","","","","","","","","","","","","","","","","","","","","","","","","","","right","","","","","","",""
"","confidence_second","html-keyboard-response","304","435408","0.0-91.0-6.0","1607.300000011921","Confidence judgment (second response)","","","-1","-1","","","","right","72.75","50","72.75","","","","","","","","","","","","","","","","","","","","","","","","","","","","",""
"","consolidated-trial-data","consolidated-trial-data","305","435410","0.0-92.0","null","consolidated-trial-data","null","","","","","","","","","","","","","","1","13","28","262","300","38","right","72.75","true","1317","2","no","right","right","72.75","true","","1607.300000011921","","","","","","","",""
"","fixation","html-keyboard-response","306","436715","0.0-93.0-0.0","null","fixation","null","","-1","-1","","","","","","","","","","","","","","","","","","","","","","","","","","","","","","","","","","","",""
"","numerosity","html-keyboard-response","307","437221","0.0-93.0-1.0","null","[Dot display: left=262, right=300, diff=38]","null","","-1","-1","262","300","38","","","","","","","","","","","","","","","","","","","","","","","","","","","","","","","","",""
"","confidence_first","html-keyboard-response","308","438497","0.0-93.0-2.0","1273.4000000059605","Confidence judgement (first response)","","","-1","-1","","","","left","60.5","60.5","50","false","39","","","","","","","","","","","","","","","","","","","","","","","","","","",""
"","no_advice_display","html-button-response","309","439284","0.0-93.0-5.0-0.0","785","noAdvice","0","","-1","-1","","","","","","","","","","","","","","","","","","","","","","","","","","","","","","","","","","","",""
"","blank_screen","html-keyboard-response","310","440088","0.0-93.0-5.0-1.0","null","blank","null","","-1","-1","","","","","","","","","","","","","","","","","","","","","","","","","","","","","","","","","","","",""
"","confidence_second","html-keyboard-response","311","440745","0.0-93.0-6.0","654.7000000029802","Confidence judgment (second response)","","","-1","-1","","","","left","60.5","60.5","50","","","","","","","","","","","","","","","","","","","","","","","","","","","","",""
"","consolidated-trial-data","consolidated-trial-data","312","440747","0.0-94.0","null","consolidated-trial-data","null","","","","","","","","","","","","","","1","14","29","262","300","38","left","60.5","false","1273.4000000059605","3","no","right","left","60.5","true","","654.7000000029802","","","","","","","",""
"","block_message","html-button-response","313","445087","0.0-95.0","4338","block message","0","","","","","","","","","","","","","3","","","","","","","","","","","","","","","","","","","","","","","","","",""
"","fixation","html-keyboard-response","314","446542","0.0-96.0-0.0","null","fixation","null","","-1","-1","","","","","","","","","","","","","","","","","","","","","","","","","","","","","","","","","","","",""
"","numerosity","html-keyboard-response","315","447050","0.0-96.0-1.0","null","[Dot display: left=261, right=300, diff=39]","null","","-1","-1","261","300","39","","","","","","","","","","","","","","","","","","","","","","","","","","","","","","","","",""
"","confidence_first","html-keyboard-response","316","448632","0.0-96.0-2.0","1578.2000000029802","Confidence judgement (first response)","","","-1","-1","","","","right","82.25","50","82.25","true","39","","","","","","","","","","","","","","","","","","","","","","","","","","",""
"","advice_choice","html-button-response","317","449714","0.0-96.0-3.0-0.0","1080","[advice choice Y,N]","1","","-1","-1","","","","","","","","","","","","","","","","","","","","","","","","","","","","","","","","","","","",""
"","blank_screen","html-keyboard-response","318","450517","0.0-96.0-3.0-2.0-0.0","null","blank","null","","-1","-1","","","","","","","","","","","","","","","","","","","","","","","","","","","","","","","","","","","",""
"","confidence_second","html-keyboard-response","319","451390","0.0-96.0-6.0","870.7000000029802","Confidence judgment (second response)","","","-1","-1","","","","right","82.25","50","82.25","","","","","","","","","","","","","","","","","","","","","","","","","","","","",""
"","consolidated-trial-data","consolidated-trial-data","320","451392","0.0-97.0","null","consolidated-trial-data","null","","","","","","","","","","","","","","2","0","30","261","300","39","right","82.25","true","1578.2000000029802","1","no","right","right","82.25","true","","870.7000000029802","","","","","","","",""
"","fixation","html-keyboard-response","321","452740","0.0-98.0-0.0","null","fixation","null","","-1","-1","","","","","","","","","","","","","","","","","","","","","","","","","","","","","","","","","","","",""
"","numerosity","html-keyboard-response","322","453247","0.0-98.0-1.0","null","[Dot display: left=261, right=300, diff=39]","null","","-1","-1","261","300","39","","","","","","","","","","","","","","","","","","","","","","","","","","","","","","","","",""
"","confidence_first","html-keyboard-response","323","454264","0.0-98.0-2.0","1015.0999999940395","Confidence judgement (first response)","","","-1","-1","","","","left","72","72","50","false","40","","","","","","","","","","","","","","","","","","","","","","","","","","",""
"","no_advice_display","html-button-response","324","455218","0.0-98.0-5.0-0.0","951","noAdvice","0","","-1","-1","","","","","","","","","","","","","","","","","","","","","","","","","","","","","","","","","","","",""
"","blank_screen","html-keyboard-response","325","456021","0.0-98.0-5.0-1.0","null","blank","null","","-1","-1","","","","","","","","","","","","","","","","","","","","","","","","","","","","","","","","","","","",""
"","confidence_second","html-keyboard-response","326","456721","0.0-98.0-6.0","697.7000000029802","Confidence judgment (second response)","","","-1","-1","","","","left","72","72","50","","","","","","","","","","","","","","","","","","","","","","","","","","","","",""
"","consolidated-trial-data","consolidated-trial-data","327","456723","0.0-99.0","null","consolidated-trial-data","null","","","","","","","","","","","","","","2","1","31","261","300","39","left","72","false","1015.0999999940395","3","no","right","left","72","true","","697.7000000029802","","","","","","","",""
"","fixation","html-keyboard-response","328","458183","0.0-100.0-0.0","null","fixation","null","","-1","-1","","","","","","","","","","","","","","","","","","","","","","","","","","","","","","","","","","","",""
"","numerosity","html-keyboard-response","329","458689","0.0-100.0-1.0","null","[Dot display: left=300, right=260, diff=40]","null","","-1","-1","300","260","40","","","","","","","","","","","","","","","","","","","","","","","","","","","","","","","","",""
"","confidence_first","html-keyboard-response","330","459751","0.0-100.0-2.0","1059.5","Confidence judgement (first response)","","","-1","-1","","","","left","97","97","50","true","40","","","","","","","","","","","","","","","","","","","","","","","","","","",""
"","advice_choice","html-button-response","331","460577","0.0-100.0-3.0-0.0","824","[advice choice Y,N]","1","","-1","-1","","","","","","","","","","","","","","","","","","","","","","","","","","","","","","","","","","","",""
"","blank_screen","html-keyboard-response","332","461379","0.0-100.0-3.0-2.0-0.0","null","blank","null","","-1","-1","","","","","","","","","","","","","","","","","","","","","","","","","","","","","","","","","","","",""
"","confidence_second","html-keyboard-response","333","462074","0.0-100.0-6.0","693.6000000089407","Confidence judgment (second response)","","","-1","-1","","","","left","97","97","50","","","","","","","","","","","","","","","","","","","","","","","","","","","","",""
"","consolidated-trial-data","consolidated-trial-data","334","462075","0.0-101.0","null","consolidated-trial-data","null","","","","","","","","","","","","","","2","2","32","300","260","40","left","97","true","1059.5","1","no","right","left","97","false","","693.6000000089407","","","","","","","",""
"","fixation","html-keyboard-response","335","463315","0.0-102.0-0.0","null","fixation","null","","-1","-1","","","","","","","","","","","","","","","","","","","","","","","","","","","","","","","","","","","",""
"","numerosity","html-keyboard-response","336","463822","0.0-102.0-1.0","null","[Dot display: left=300, right=260, diff=40]","null","","-1","-1","300","260","40","","","","","","","","","","","","","","","","","","","","","","","","","","","","","","","","",""
"","confidence_first","html-keyboard-response","337","464738","0.0-102.0-2.0","913.1000000089407","Confidence judgement (first response)","","","-1","-1","","","","left","76","76","50","true","40","","","","","","","","","","","","","","","","","","","","","","","","","","",""
"","advice_choice","html-button-response","338","465605","0.0-102.0-3.0-0.0","864","[advice choice Y,N]","1","","-1","-1","","","","","","","","","","","","","","","","","","","","","","","","","","","","","","","","","","","",""
"","blank_screen","html-keyboard-response","339","466408","0.0-102.0-3.0-2.0-0.0","null","blank","null","","-1","-1","","","","","","","","","","","","","","","","","","","","","","","","","","","","","","","","","","","",""
"","confidence_second","html-keyboard-response","340","467103","0.0-102.0-6.0","691.7999999970198","Confidence judgment (second response)","","","-1","-1","","","","left","76","76","50","","","","","","","","","","","","","","","","","","","","","","","","","","","","",""
"","consolidated-trial-data","consolidated-trial-data","341","467106","0.0-103.0","null","consolidated-trial-data","null","","","","","","","","","","","","","","2","3","33","300","260","40","left","76","true","913.1000000089407","1","no","right","left","76","false","","691.7999999970198","","","","","","","",""
"","fixation","html-keyboard-response","342","468599","0.0-104.0-0.0","null","fixation","null","","-1","-1","","","","","","","","","","","","","","","","","","","","","","","","","","","","","","","","","","","",""
"","numerosity","html-keyboard-response","343","469107","0.0-104.0-1.0","null","[Dot display: left=260, right=300, diff=40]","null","","-1","-1","260","300","40","","","","","","","","","","","","","","","","","","","","","","","","","","","","","","","","",""
"","confidence_first","html-keyboard-response","344","470164","0.0-104.0-2.0","1053.9000000059605","Confidence judgement (first response)","","","-1","-1","","","","right","78.25","50","78.25","true","39","","","","","","","","","","","","","","","","","","","","","","","","","","",""
"","forced_advice_display","html-button-response","345","470890","0.0-104.0-4.0-0.0","723","forcedAdvice","0","","-1","-1","","","","","","","","","","","","","","","","","","","","","","","","","","","","","","","","","","","",""
"","show_advice","html-keyboard-response","346","471693","0.0-104.0-4.0-1.0","null","[advice: left]","null","","-1","-1","","","","","","","","","","","","","","","","","","","","","","","","","","","","","left","","","","","","",""
"","confidence_second","html-keyboard-response","347","472430","0.0-104.0-6.0","734.4000000059605","Confidence judgment (second response)","","","-1","-1","","","","right","78.25","50","78.25","","","","","","","","","","","","","","","","","","","","","","","","","","","","",""
"","consolidated-trial-data","consolidated-trial-data","348","472432","0.0-105.0","null","consolidated-trial-data","null","","","","","","","","","","","","","","2","4","34","260","300","40","right","78.25","true","1053.9000000059605","2","no","left","right","78.25","false","","734.4000000059605","","","","","","","",""
"","fixation","html-keyboard-response","349","473678","0.0-106.0-0.0","null","fixation","null","","-1","-1","","","","","","","","","","","","","","","","","","","","","","","","","","","","","","","","","","","",""
"","numerosity","html-keyboard-response","350","474185","0.0-106.0-1.0","null","[Dot display: left=261, right=300, diff=39]","null","","-1","-1","261","300","39","","","","","","","","","","","","","","","","","","","","","","","","","","","","","","","","",""
"","confidence_first","html-keyboard-response","351","475712","0.0-106.0-2.0","1524.199999988079","Confidence judgement (first response)","","","-1","-1","","","","left","79.75","79.75","50","false","40","","","","","","","","","","","","","","","","","","","","","","","","","","",""
"","forced_advice_display","html-button-response","352","476499","0.0-106.0-4.0-0.0","784","forcedAdvice","0","","-1","-1","","","","","","","","","","","","","","","","","","","","","","","","","","","","","","","","","","","",""
"","show_advice","html-keyboard-response","353","477302","0.0-106.0-4.0-1.0","null","[advice: right]","null","","-1","-1","","","","","","","","","","","","","","","","","","","","","","","","","","","","","right","","","","","","",""
"","confidence_second","html-keyboard-response","354","478704","0.0-106.0-6.0","1399.9000000059605","Confidence judgment (second response)","","","-1","-1","","","","left","79.75","79.75","50","","","","","","","","","","","","","","","","","","","","","","","","","","","","",""
"","consolidated-trial-data","consolidated-trial-data","355","478707","0.0-107.0","null","consolidated-trial-data","null","","","","","","","","","","","","","","2","5","35","261","300","39","left","79.75","false","1524.199999988079","2","no","right","left","79.75","true","","1399.9000000059605","","","","","","","",""
"","fixation","html-keyboard-response","356","480033","0.0-108.0-0.0","null","fixation","null","","-1","-1","","","","","","","","","","","","","","","","","","","","","","","","","","","","","","","","","","","",""
"","numerosity","html-keyboard-response","357","480543","0.0-108.0-1.0","null","[Dot display: left=260, right=300, diff=40]","null","","-1","-1","260","300","40","","","","","","","","","","","","","","","","","","","","","","","","","","","","","","","","",""
"","confidence_first","html-keyboard-response","358","481881","0.0-108.0-2.0","1335.1000000089407","Confidence judgement (first response)","","","-1","-1","","","","right","72.75","50","72.75","true","40","","","","","","","","","","","","","","","","","","","","","","","","","","",""
"","advice_choice","html-button-response","359","482791","0.0-108.0-3.0-0.0","907","[advice choice Y,N]","1","","-1","-1","","","","","","","","","","","","","","","","","","","","","","","","","","","","","","","","","","","",""
"","blank_screen","html-keyboard-response","360","483593","0.0-108.0-3.0-2.0-0.0","null","blank","null","","-1","-1","","","","","","","","","","","","","","","","","","","","","","","","","","","","","","","","","","","",""
"","confidence_second","html-keyboard-response","361","484428","0.0-108.0-6.0","832.5999999940395","Confidence judgment (second response)","","","-1","-1","","","","right","72.75","50","72.75","","","","","","","","","","","","","","","","","","","","","","","","","","","","",""
"","consolidated-trial-data","consolidated-trial-data","362","484431","0.0-109.0","null","consolidated-trial-data","null","","","","","","","","","","","","","","2","6","36","260","300","40","right","72.75","true","1335.1000000089407","1","no","right","right","72.75","true","","832.5999999940395","","","","","","","",""
"","fixation","html-keyboard-response","363","485702","0.0-110.0-0.0","null","fixation","null","","-1","-1","","","","","","","","","","","","","","","","","","","","","","","","","","","","","","","","","","","",""
"","numerosity","html-keyboard-response","364","486209","0.0-110.0-1.0","null","[Dot display: left=300, right=260, diff=40]","null","","-1","-1","300","260","40","","","","","","","","","","","","","","","","","","","","","","","","","","","","","","","","",""
"","confidence_first","html-keyboard-response","365","487438","0.0-110.0-2.0","1225.3999999910593","Confidence judgement (first response)","","","-1","-1","","","","left","62.75","62.75","50","true","40","","","","","","","","","","","","","","","","","","","","","","","","","","",""
"","no_advice_display","html-button-response","366","488207","0.0-110.0-5.0-0.0","767","noAdvice","0","","-1","-1","","","","","","","","","","","","","","","","","","","","","","","","","","","","","","","","","","","",""
"","blank_screen","html-keyboard-response","367","489010","0.0-110.0-5.0-1.0","null","blank","null","","-1","-1","","","","","","","","","","","","","","","","","","","","","","","","","","","","","","","","","","","",""
"","confidence_second","html-keyboard-response","368","489686","0.0-110.0-6.0","674.8000000119209","Confidence judgment (second response)","","","-1","-1","","","","left","62.75","62.75","50","","","","","","","","","","","","","","","","","","","","","","","","","","","","",""
"","consolidated-trial-data","consolidated-trial-data","369","489689","0.0-111.0","null","consolidated-trial-data","null","","","","","","","","","","","","","","2","7","37","300","260","40","left","62.75","true","1225.3999999910593","3","no","right","left","62.75","false","","674.8000000119209","","","","","","","",""
"","fixation","html-keyboard-response","370","490943","0.0-112.0-0.0","null","fixation","null","","-1","-1","","","","","","","","","","","","","","","","","","","","","","","","","","","","","","","","","","","",""
"","numerosity","html-keyboard-response","371","491449","0.0-112.0-1.0","null","[Dot display: left=260, right=300, diff=40]","null","","-1","-1","260","300","40","","","","","","","","","","","","","","","","","","","","","","","","","","","","","","","","",""
"","confidence_first","html-keyboard-response","372","492557","0.0-112.0-2.0","1104.7999999970198","Confidence judgement (first response)","","","-1","-1","","","","right","97.5","50","97.5","true","40","","","","","","","","","","","","","","","","","","","","","","","","","","",""
"","forced_advice_display","html-button-response","373","493641","0.0-112.0-4.0-0.0","1082","forcedAdvice","0","","-1","-1","","","","","","","","","","","","","","","","","","","","","","","","","","","","","","","","","","","",""
"","show_advice","html-keyboard-response","374","494445","0.0-112.0-4.0-1.0","null","[advice: right]","null","","-1","-1","","","","","","","","","","","","","","","","","","","","","","","","","","","","","right","","","","","","",""
"","confidence_second","html-keyboard-response","375","495495","0.0-112.0-6.0","1047.5","Confidence judgment (second response)","","","-1","-1","","","","right","97.5","50","97.5","","","","","","","","","","","","","","","","","","","","","","","","","","","","",""
"","consolidated-trial-data","consolidated-trial-data","376","495498","0.0-113.0","null","consolidated-trial-data","null","","","","","","","","","","","","","","2","8","38","260","300","40","right","97.5","true","1104.7999999970198","2","no","right","right","97.5","true","","1047.5","","","","","","","",""
"","fixation","html-keyboard-response","377","496791","0.0-114.0-0.0","null","fixation","null","","-1","-1","","","","","","","","","","","","","","","","","","","","","","","","","","","","","","","","","","","",""
"","numerosity","html-keyboard-response","378","497299","0.0-114.0-1.0","null","[Dot display: left=260, right=300, diff=40]","null","","-1","-1","260","300","40","","","","","","","","","","","","","","","","","","","","","","","","","","","","","","","","",""
"","confidence_first","html-keyboard-response","379","498402","0.0-114.0-2.0","1099.7000000029802","Confidence judgement (first response)","","","-1","-1","","","","right","72.25","50","72.25","true","39","","","","","","","","","","","","","","","","","","","","","","","","","","",""
"","no_advice_display","html-button-response","380","499326","0.0-114.0-5.0-0.0","922","noAdvice","0","","-1","-1","","","","","","","","","","","","","","","","","","","","","","","","","","","","","","","","","","","",""
"","blank_screen","html-keyboard-response","381","500128","0.0-114.0-5.0-1.0","null","blank","null","","-1","-1","","","","","","","","","","","","","","","","","","","","","","","","","","","","","","","","","","","",""
"","confidence_second","html-keyboard-response","382","500850","0.0-114.0-6.0","719.2999999970198","Confidence judgment (second response)","","","-1","-1","","","","right","72.25","50","72.25","","","","","","","","","","","","","","","","","","","","","","","","","","","","",""
"","consolidated-trial-data","consolidated-trial-data","383","500853","0.0-115.0","null","consolidated-trial-data","null","","","","","","","","","","","","","","2","9","39","260","300","40","right","72.25","true","1099.7000000029802","3","no","right","right","72.25","true","","719.2999999970198","","","","","","","",""
"","fixation","html-keyboard-response","384","502102","0.0-116.0-0.0","null","fixation","null","","-1","-1","","","","","","","","","","","","","","","","","","","","","","","","","","","","","","","","","","","",""
"","numerosity","html-keyboard-response","385","502610","0.0-116.0-1.0","null","[Dot display: left=261, right=300, diff=39]","null","","-1","-1","261","300","39","","","","","","","","","","","","","","","","","","","","","","","","","","","","","","","","",""
"","confidence_first","html-keyboard-response","386","503564","0.0-116.0-2.0","951","Confidence judgement (first response)","","","-1","-1","","","","right","65","50","65","true","39","","","","","","","","","","","","","","","","","","","","","","","","","","",""
"","no_advice_display","html-button-response","387","504396","0.0-116.0-5.0-0.0","830","noAdvice","0","","-1","-1","","","","","","","","","","","","","","","","","","","","","","","","","","","","","","","","","","","",""
